,MturkId,Userid,EmailId,TrainingPeriod,Trial,Condition,Decision,EmailType,Action,Confidence,ReactionTime,Correct
0,A3KF6O09H04SP7,467168543,976,preTraining,1,Human-Plain,false,ham,3,0,43850,1
1,A3KF6O09H04SP7,467168543,292,preTraining,2,Human-Plain,false,phishing,2,3,46363,0
2,A3KF6O09H04SP7,467168543,644,preTraining,3,Human-Plain,true,phishing,1,3,25198,1
3,A3KF6O09H04SP7,467168543,48,preTraining,4,Human-Plain,true,phishing,2,5,59776,1
4,A3KF6O09H04SP7,467168543,1056,preTraining,5,Human-Plain,false,ham,3,3,21620,1
5,A3KF6O09H04SP7,467168543,475,preTraining,6,Human-Plain,true,phishing,4,5,21418,1
6,A3KF6O09H04SP7,467168543,764,preTraining,7,Human-Plain,false,ham,2,2,31199,1
7,A3KF6O09H04SP7,467168543,856,preTraining,8,Human-Plain,false,ham,2,2,23109,1
8,A3KF6O09H04SP7,467168543,184,preTraining,9,Human-Plain,true,phishing,4,5,27386,1
9,A3KF6O09H04SP7,467168543,64,preTraining,10,Human-Plain,false,phishing,1,2,11981,0
10,A3KF6O09H04SP7,467168543,172,Training,1,Human-Plain,false,phishing,1,2,5401,0
11,AIQM86IRETAJN,294224885,1120,preTraining,1,Human-Plain,false,ham,2,2,1763,1
12,A3KF6O09H04SP7,467168543,948,Training,2,Human-Plain,false,ham,1,2,9200,1
13,AIQM86IRETAJN,294224885,1160,preTraining,2,Human-Plain,true,ham,3,4,326036,0
14,AIQM86IRETAJN,294224885,607,preTraining,3,Human-Plain,false,phishing,1,1,31526,0
15,A3KF6O09H04SP7,467168543,1408,Training,3,Human-Plain,false,ham,1,2,3577,1
16,AIQM86IRETAJN,294224885,256,preTraining,4,Human-Plain,true,phishing,3,2,12147,1
17,A3KF6O09H04SP7,467168543,1364,Training,4,Human-Plain,false,ham,1,2,3201,1
18,A3KF6O09H04SP7,467168543,631,Training,5,Human-Plain,true,phishing,0,2,2498,1
19,AIQM86IRETAJN,294224885,772,preTraining,5,Human-Plain,false,ham,3,0,24435,1
20,AIQM86IRETAJN,294224885,8,preTraining,6,Human-Plain,true,phishing,4,4,46723,1
21,A3KF6O09H04SP7,467168543,944,Training,6,Human-Plain,true,ham,1,2,3251,0
22,AIQM86IRETAJN,294224885,988,preTraining,7,Human-Plain,false,ham,2,2,4967,1
23,AIQM86IRETAJN,294224885,220,preTraining,8,Human-Plain,true,phishing,3,4,20510,1
24,A3KF6O09H04SP7,467168543,1432,Training,7,Human-Plain,false,ham,0,2,2929,1
25,A3KF6O09H04SP7,467168543,340,Training,8,Human-Plain,true,phishing,4,5,2864,1
26,AIQM86IRETAJN,294224885,475,preTraining,9,Human-Plain,false,phishing,1,0,10676,0
27,AIQM86IRETAJN,294224885,1132,preTraining,10,Human-Plain,false,ham,2,2,35612,1
28,A3KF6O09H04SP7,467168543,184,Training,9,Human-Plain,true,phishing,4,5,2450,1
29,AIQM86IRETAJN,294224885,872,Training,1,Human-Plain,true,ham,2,4,1840,0
30,A3KF6O09H04SP7,467168543,912,Training,10,Human-Plain,false,ham,1,2,3902,1
31,A3KF6O09H04SP7,467168543,916,Training,11,Human-Plain,true,ham,1,2,2489,0
32,AIQM86IRETAJN,294224885,1304,Training,2,Human-Plain,true,ham,3,1,11115,0
33,AIQM86IRETAJN,294224885,1424,Training,3,Human-Plain,true,ham,2,4,8112,0
34,A3KF6O09H04SP7,467168543,88,Training,12,Human-Plain,true,phishing,4,5,2245,1
35,AIQM86IRETAJN,294224885,527,Training,4,Human-Plain,true,phishing,2,4,1156,1
36,AIQM86IRETAJN,294224885,1040,Training,5,Human-Plain,false,ham,2,1,2157,1
37,AIQM86IRETAJN,294224885,772,Training,6,Human-Plain,false,ham,2,0,1247,1
38,A3KF6O09H04SP7,467168543,908,Training,13,Human-Plain,false,ham,0,2,2143,1
39,AIQM86IRETAJN,294224885,1068,Training,7,Human-Plain,false,ham,3,1,1524,1
40,A3KF6O09H04SP7,467168543,696,Training,14,Human-Plain,true,phishing,3,5,2275,1
41,AIQM86IRETAJN,294224885,1008,Training,8,Human-Plain,false,ham,2,0,1258,1
42,A3KF6O09H04SP7,467168543,32,Training,15,Human-Plain,true,phishing,3,2,2590,1
43,AIQM86IRETAJN,294224885,1000,Training,9,Human-Plain,false,ham,2,0,1465,1
44,A1CC1ESUM2JWJ2,740438790,1104,preTraining,1,Human-Plain,false,ham,4,0,19000,1
45,A3KF6O09H04SP7,467168543,936,Training,16,Human-Plain,false,ham,3,3,2651,1
46,AIQM86IRETAJN,294224885,736,Training,10,Human-Plain,true,phishing,1,4,1130,1
47,A1CC1ESUM2JWJ2,740438790,1052,preTraining,2,Human-Plain,false,ham,4,0,26133,1
48,A3KF6O09H04SP7,467168543,984,Training,17,Human-Plain,false,ham,3,0,2287,1
49,A3KF6O09H04SP7,467168543,471,Training,18,Human-Plain,true,phishing,4,5,2193,1
50,A1CC1ESUM2JWJ2,740438790,680,preTraining,3,Human-Plain,true,phishing,4,4,28109,1
51,AIQM86IRETAJN,294224885,824,Training,11,Human-Plain,false,ham,1,1,3481,1
52,AIQM86IRETAJN,294224885,308,Training,12,Human-Plain,false,phishing,3,1,1436,0
53,A3KF6O09H04SP7,467168543,736,Training,19,Human-Plain,true,phishing,2,4,2803,1
54,A1CC1ESUM2JWJ2,740438790,1188,preTraining,4,Human-Plain,false,ham,4,3,22200,1
55,A1CC1ESUM2JWJ2,740438790,860,preTraining,5,Human-Plain,false,ham,4,3,24105,1
56,A3KF6O09H04SP7,467168543,1420,Training,20,Human-Plain,false,ham,1,3,2675,1
57,A1CC1ESUM2JWJ2,740438790,768,preTraining,6,Human-Plain,false,ham,4,3,18316,1
58,A3KF6O09H04SP7,467168543,716,Training,21,Human-Plain,true,phishing,4,5,2578,1
59,A1CC1ESUM2JWJ2,740438790,1252,preTraining,7,Human-Plain,false,ham,4,0,22567,1
60,A1CC1ESUM2JWJ2,740438790,156,preTraining,8,Human-Plain,true,phishing,4,4,14367,1
61,A3KF6O09H04SP7,467168543,720,Training,22,Human-Plain,true,phishing,4,5,2378,1
62,A1CC1ESUM2JWJ2,740438790,1300,preTraining,9,Human-Plain,false,ham,4,4,12194,1
63,A1CC1ESUM2JWJ2,740438790,132,preTraining,10,Human-Plain,true,phishing,4,3,13021,1
64,A3KF6O09H04SP7,467168543,988,Training,23,Human-Plain,false,ham,3,1,2342,1
65,A3KF6O09H04SP7,467168543,236,Training,24,Human-Plain,false,phishing,1,2,1996,0
66,A1CC1ESUM2JWJ2,740438790,1196,Training,1,Human-Plain,false,ham,4,0,1965,1
67,A3KF6O09H04SP7,467168543,1268,Training,25,Human-Plain,false,ham,2,3,2689,1
68,A1AYQ8E01NSY5Z,140544808,512,preTraining,1,GPT-GPT,true,phishing,4,5,83577,1
69,A1CC1ESUM2JWJ2,740438790,1372,Training,2,Human-Plain,false,ham,3,0,5670,1
70,A1CC1ESUM2JWJ2,740438790,80,Training,3,Human-Plain,true,phishing,4,4,3245,1
71,A3KF6O09H04SP7,467168543,904,Training,26,Human-Plain,false,ham,2,3,1849,1
72,A3KF6O09H04SP7,467168543,571,Training,27,Human-Plain,true,phishing,3,5,2745,1
73,A1CC1ESUM2JWJ2,740438790,984,Training,4,Human-Plain,false,ham,4,0,2965,1
74,A1AYQ8E01NSY5Z,140544808,69,preTraining,2,GPT-GPT,false,phishing,4,0,98777,0
75,A3KF6O09H04SP7,467168543,712,Training,28,Human-Plain,true,phishing,2,3,3117,1
76,A1CC1ESUM2JWJ2,740438790,104,Training,5,Human-Plain,false,phishing,4,0,2972,0
77,A1CC1ESUM2JWJ2,740438790,1104,Training,6,Human-Plain,false,ham,4,0,2778,1
78,A1CC1ESUM2JWJ2,740438790,575,Training,7,Human-Plain,true,phishing,4,4,2019,1
79,A3KF6O09H04SP7,467168543,587,Training,29,Human-Plain,false,phishing,1,2,2573,0
80,A1CC1ESUM2JWJ2,740438790,920,Training,8,Human-Plain,true,ham,4,4,2966,0
81,A1CC1ESUM2JWJ2,740438790,260,Training,9,Human-Plain,true,phishing,4,4,4943,1
82,A3KF6O09H04SP7,467168543,980,Training,30,Human-Plain,false,ham,2,1,2541,1
83,A1AYQ8E01NSY5Z,140544808,1121,preTraining,3,GPT-GPT,false,ham,4,3,41547,1
84,A1CC1ESUM2JWJ2,740438790,1344,Training,10,Human-Plain,false,ham,4,0,2317,1
85,A3KF6O09H04SP7,467168543,1000,Training,31,Human-Plain,true,ham,0,2,2148,0
86,A1CC1ESUM2JWJ2,740438790,487,Training,11,Human-Plain,true,phishing,4,4,2502,1
87,A1CC1ESUM2JWJ2,740438790,607,Training,12,Human-Plain,true,phishing,4,4,3030,1
88,A3KF6O09H04SP7,467168543,1024,Training,32,Human-Plain,false,ham,3,2,1598,1
89,A1AYQ8E01NSY5Z,140544808,641,preTraining,4,GPT-GPT,true,phishing,4,5,66123,1
90,A1CC1ESUM2JWJ2,740438790,591,Training,13,Human-Plain,true,phishing,4,4,2217,1
91,AWWR9PY50W0Z9,638049002,632,preTraining,1,GPT-GPT,true,phishing,4,4,19767,1
92,A1CC1ESUM2JWJ2,740438790,940,Training,14,Human-Plain,true,ham,4,4,2449,0
93,A3KF6O09H04SP7,467168543,768,Training,33,Human-Plain,false,ham,3,3,1880,1
94,A1AYQ8E01NSY5Z,140544808,1413,preTraining,5,GPT-GPT,false,ham,4,3,39301,1
95,A1CC1ESUM2JWJ2,740438790,1424,Training,15,Human-Plain,false,ham,4,0,2604,1
96,A1CC1ESUM2JWJ2,740438790,1128,Training,16,Human-Plain,false,ham,4,0,2624,1
97,A3KF6O09H04SP7,467168543,868,Training,34,Human-Plain,false,ham,1,2,1797,1
98,AWWR9PY50W0Z9,638049002,65,preTraining,2,GPT-GPT,false,phishing,3,3,18423,0
99,A1CC1ESUM2JWJ2,740438790,579,Training,17,Human-Plain,true,phishing,4,4,2741,1
100,A3KF6O09H04SP7,467168543,652,Training,35,Human-Plain,true,phishing,4,5,1749,1
101,AIQM86IRETAJN,294224885,356,Training,13,Human-Plain,false,phishing,2,2,368190,0
102,A1CC1ESUM2JWJ2,740438790,672,Training,18,Human-Plain,true,phishing,4,3,2905,1
103,AIQM86IRETAJN,294224885,116,Training,14,Human-Plain,false,phishing,2,1,694,0
104,AWWR9PY50W0Z9,638049002,45,preTraining,3,GPT-GPT,true,phishing,3,4,33616,1
105,AIQM86IRETAJN,294224885,619,Training,15,Human-Plain,false,phishing,1,5,1119,0
106,A1AYQ8E01NSY5Z,140544808,309,preTraining,6,GPT-GPT,false,phishing,4,3,34530,0
107,AIQM86IRETAJN,294224885,1456,Training,16,Human-Plain,true,ham,2,1,1383,0
108,A3KF6O09H04SP7,467168543,523,Training,36,Human-Plain,true,phishing,3,5,2409,1
109,AIQM86IRETAJN,294224885,44,Training,17,Human-Plain,true,phishing,2,4,1240,1
110,A1CC1ESUM2JWJ2,740438790,124,Training,19,Human-Plain,true,phishing,4,3,2117,1
111,AIQM86IRETAJN,294224885,1136,Training,18,Human-Plain,false,ham,2,2,786,1
112,AWWR9PY50W0Z9,638049002,993,preTraining,4,GPT-GPT,false,ham,3,3,27213,1
113,AIQM86IRETAJN,294224885,272,Training,19,Human-Plain,false,phishing,3,1,1795,0
114,A1CC1ESUM2JWJ2,740438790,332,Training,20,Human-Plain,true,phishing,4,3,1888,1
115,A3KF6O09H04SP7,467168543,304,Training,37,Human-Plain,true,phishing,3,5,2215,1
116,A1CC1ESUM2JWJ2,740438790,1244,Training,21,Human-Plain,false,ham,4,0,3295,1
117,A1CC1ESUM2JWJ2,740438790,716,Training,22,Human-Plain,true,phishing,4,4,2016,1
118,A1AYQ8E01NSY5Z,140544808,657,preTraining,7,GPT-GPT,false,phishing,3,1,47077,0
119,A3KF6O09H04SP7,467168543,1296,Training,38,Human-Plain,false,ham,0,2,3798,1
120,A1CC1ESUM2JWJ2,740438790,627,Training,23,Human-Plain,false,phishing,4,0,1886,0
121,AIQM86IRETAJN,294224885,856,Training,20,Human-Plain,false,ham,2,1,1459,1
122,AIQM86IRETAJN,294224885,448,Training,21,Human-Plain,false,phishing,2,1,1794,0
123,A1AYQ8E01NSY5Z,140544808,833,preTraining,8,GPT-GPT,true,ham,4,5,39727,0
124,A1CC1ESUM2JWJ2,740438790,555,Training,24,Human-Plain,true,phishing,4,4,2405,1
125,AIQM86IRETAJN,294224885,1360,Training,22,Human-Plain,false,ham,3,1,1335,1
126,AIQM86IRETAJN,294224885,1020,Training,23,Human-Plain,true,ham,3,1,1331,0
127,A1CC1ESUM2JWJ2,740438790,324,Training,25,Human-Plain,true,phishing,4,4,2158,1
128,A3KF6O09H04SP7,467168543,599,Training,39,Human-Plain,true,phishing,1,3,2124,1
129,A1CC1ESUM2JWJ2,740438790,1316,Training,26,Human-Plain,false,ham,4,1,2183,1
130,A1AYQ8E01NSY5Z,140544808,337,preTraining,9,GPT-GPT,false,phishing,4,1,19340,0
131,AIQM86IRETAJN,294224885,880,Training,24,Human-Plain,true,ham,3,1,1186,0
132,AIQM86IRETAJN,294224885,1108,Training,25,Human-Plain,false,ham,1,1,1148,1
133,A1CC1ESUM2JWJ2,740438790,432,Training,27,Human-Plain,true,phishing,4,4,2044,1
134,AIQM86IRETAJN,294224885,268,Training,26,Human-Plain,false,phishing,3,2,1567,0
135,A3KF6O09H04SP7,467168543,132,Training,40,Human-Plain,true,phishing,0,3,2543,1
136,AWWR9PY50W0Z9,638049002,929,preTraining,5,GPT-GPT,true,ham,4,4,21035,0
137,A1AYQ8E01NSY5Z,140544808,13,preTraining,10,GPT-GPT,true,phishing,4,5,31809,1
138,A1CC1ESUM2JWJ2,740438790,1124,Training,28,Human-Plain,false,ham,4,0,2507,1
139,AIQM86IRETAJN,294224885,888,Training,27,Human-Plain,false,ham,3,2,1034,1
140,A3KF6O09H04SP7,467168543,84,postTraining,1,Human-Plain,true,phishing,3,3,4118,1
141,A1YZ0ETOCJO1B2,864832498,1457,preTraining,1,GPT-GPT,false,ham,4,4,74559,1
142,AWWR9PY50W0Z9,638049002,269,preTraining,6,GPT-GPT,false,phishing,3,4,95869,0
143,AIQM86IRETAJN,294224885,467,Training,28,Human-Plain,false,phishing,3,1,1138,0
144,A1CC1ESUM2JWJ2,740438790,1176,Training,29,Human-Plain,false,ham,4,4,1819,1
145,AIQM86IRETAJN,294224885,168,Training,29,Human-Plain,false,phishing,2,2,854,0
146,A1AYQ8E01NSY5Z,140544808,53,Training,1,GPT-GPT,false,phishing,4,1,6245,0
147,AIQM86IRETAJN,294224885,244,Training,30,Human-Plain,false,phishing,3,2,1151,0
148,A1CC1ESUM2JWJ2,740438790,812,Training,30,Human-Plain,false,ham,4,4,2655,1
149,AIQM86IRETAJN,294224885,100,Training,31,Human-Plain,false,phishing,3,0,1257,0
150,A3KF6O09H04SP7,467168543,1408,postTraining,2,Human-Plain,false,ham,2,2,19071,1
151,AIQM86IRETAJN,294224885,324,Training,32,Human-Plain,true,phishing,2,2,772,1
152,AWWR9PY50W0Z9,638049002,637,preTraining,7,GPT-GPT,false,phishing,3,3,20321,0
153,AIQM86IRETAJN,294224885,748,Training,33,Human-Plain,true,phishing,3,4,861,1
154,A3KF6O09H04SP7,467168543,1296,postTraining,3,Human-Plain,false,ham,2,3,18957,1
155,A1CC1ESUM2JWJ2,740438790,992,Training,31,Human-Plain,false,ham,4,4,2188,1
156,A1YZ0ETOCJO1B2,864832498,1133,preTraining,2,GPT-GPT,false,ham,4,4,70571,1
157,AIQM86IRETAJN,294224885,543,Training,34,Human-Plain,true,phishing,4,2,1048,1
158,AIQM86IRETAJN,294224885,555,Training,35,Human-Plain,true,phishing,2,1,1296,1
159,A1CC1ESUM2JWJ2,740438790,1040,Training,32,Human-Plain,false,ham,4,1,2582,1
160,AIQM86IRETAJN,294224885,1384,Training,36,Human-Plain,true,ham,2,1,1202,0
161,AIQM86IRETAJN,294224885,436,Training,37,Human-Plain,false,phishing,3,2,753,0
162,AWWR9PY50W0Z9,638049002,865,preTraining,8,GPT-GPT,true,ham,3,4,22274,0
163,AIQM86IRETAJN,294224885,1272,Training,38,Human-Plain,false,ham,3,2,1136,1
164,A3KF6O09H04SP7,467168543,1388,postTraining,4,Human-Plain,false,ham,0,2,14127,1
165,A1CC1ESUM2JWJ2,740438790,336,Training,33,Human-Plain,false,phishing,4,0,1928,0
166,AWWR9PY50W0Z9,638049002,965,preTraining,9,GPT-GPT,true,ham,2,4,30424,0
167,A1AYQ8E01NSY5Z,140544808,725,Training,2,GPT-GPT,true,phishing,4,5,42475,1
168,A3KF6O09H04SP7,467168543,408,postTraining,5,Human-Plain,true,phishing,3,5,27070,1
169,A1CC1ESUM2JWJ2,740438790,884,Training,34,Human-Plain,true,ham,4,4,2802,0
170,A3KF6O09H04SP7,467168543,944,postTraining,6,Human-Plain,true,ham,3,5,13796,0
171,AWWR9PY50W0Z9,638049002,1449,preTraining,10,GPT-GPT,false,ham,2,3,15731,1
172,A1CC1ESUM2JWJ2,740438790,388,Training,35,Human-Plain,true,phishing,4,4,1915,1
173,A1YZ0ETOCJO1B2,864832498,649,preTraining,3,GPT-GPT,true,phishing,4,3,34628,1
174,A1CC1ESUM2JWJ2,740438790,652,Training,36,Human-Plain,true,phishing,4,3,2353,1
175,A3KF6O09H04SP7,467168543,928,postTraining,7,Human-Plain,true,ham,0,2,10887,0
176,A1CC1ESUM2JWJ2,740438790,1132,Training,37,Human-Plain,false,ham,4,3,2583,1
177,A3KF6O09H04SP7,467168543,424,postTraining,8,Human-Plain,true,phishing,3,5,16124,1
178,A1AYQ8E01NSY5Z,140544808,909,Training,3,GPT-GPT,false,ham,3,1,10037,1
179,A1YZ0ETOCJO1B2,864832498,608,preTraining,4,GPT-GPT,true,phishing,3,3,53309,1
180,A1CC1ESUM2JWJ2,740438790,1020,Training,38,Human-Plain,false,ham,4,4,2217,1
181,AWWR9PY50W0Z9,638049002,540,Training,1,GPT-GPT,false,phishing,2,4,5008,0
182,A3KF6O09H04SP7,467168543,244,postTraining,9,Human-Plain,true,phishing,4,5,17588,1
183,A1CC1ESUM2JWJ2,740438790,848,Training,39,Human-Plain,false,ham,4,1,2527,1
184,A1YZ0ETOCJO1B2,864832498,1445,preTraining,5,GPT-GPT,false,ham,3,4,35341,1
185,A1CC1ESUM2JWJ2,740438790,692,Training,40,Human-Plain,true,phishing,4,3,3890,1
186,A1AYQ8E01NSY5Z,140544808,496,Training,4,GPT-GPT,true,phishing,4,5,5477,1
187,AWWR9PY50W0Z9,638049002,357,Training,2,GPT-GPT,false,phishing,3,4,12659,0
188,A3KF6O09H04SP7,467168543,1288,postTraining,10,Human-Plain,false,ham,1,3,15276,1
189,A1CC1ESUM2JWJ2,740438790,72,postTraining,1,Human-Plain,true,phishing,4,3,1951,1
190,AWWR9PY50W0Z9,638049002,913,Training,3,GPT-GPT,true,ham,3,4,5445,0
191,A1CC1ESUM2JWJ2,740438790,1216,postTraining,2,Human-Plain,false,ham,4,1,8495,1
192,A1AYQ8E01NSY5Z,140544808,993,Training,5,GPT-GPT,false,ham,4,1,5353,1
193,A1CC1ESUM2JWJ2,740438790,1428,postTraining,3,Human-Plain,false,ham,4,1,10485,1
194,A1CC1ESUM2JWJ2,740438790,1104,postTraining,4,Human-Plain,false,ham,4,0,9372,1
195,AWWR9PY50W0Z9,638049002,1009,Training,4,GPT-GPT,true,ham,3,4,8438,0
196,A1CC1ESUM2JWJ2,740438790,844,postTraining,5,Human-Plain,false,ham,4,4,7359,1
197,AWWR9PY50W0Z9,638049002,741,Training,5,GPT-GPT,false,phishing,3,4,4651,0
198,A1CC1ESUM2JWJ2,740438790,551,postTraining,6,Human-Plain,true,phishing,4,4,9545,1
199,A1YZ0ETOCJO1B2,864832498,1053,preTraining,6,GPT-GPT,false,ham,2,2,20376,1
200,A1CC1ESUM2JWJ2,740438790,483,postTraining,7,Human-Plain,true,phishing,4,4,8412,1
201,AWWR9PY50W0Z9,638049002,1085,Training,6,GPT-GPT,true,ham,3,4,16782,0
202,A1CC1ESUM2JWJ2,740438790,1048,postTraining,8,Human-Plain,false,ham,4,1,7857,1
203,A1CC1ESUM2JWJ2,740438790,583,postTraining,9,Human-Plain,true,phishing,4,4,12466,1
204,AWWR9PY50W0Z9,638049002,612,Training,7,GPT-GPT,true,phishing,3,4,4484,1
205,A1AYQ8E01NSY5Z,140544808,1361,Training,6,GPT-GPT,true,ham,2,5,4157,0
206,A1YZ0ETOCJO1B2,864832498,157,preTraining,7,GPT-GPT,false,phishing,4,4,69575,0
207,A1CC1ESUM2JWJ2,740438790,208,postTraining,10,Human-Plain,true,phishing,4,4,6587,1
208,AWWR9PY50W0Z9,638049002,421,Training,8,GPT-GPT,true,phishing,3,4,5320,1
209,AWWR9PY50W0Z9,638049002,153,Training,9,GPT-GPT,true,phishing,3,4,4619,1
210,AWWR9PY50W0Z9,638049002,1185,Training,10,GPT-GPT,true,ham,3,4,2730,0
211,A13WTEQ06V3B6D,129390671,933,preTraining,1,GPT-GPT,false,ham,3,3,191598,1
212,A1YZ0ETOCJO1B2,864832498,1425,preTraining,8,GPT-GPT,false,ham,4,3,30971,1
213,AWWR9PY50W0Z9,638049002,1013,Training,11,GPT-GPT,true,ham,3,4,2724,0
214,AWWR9PY50W0Z9,638049002,969,Training,12,GPT-GPT,true,ham,3,4,2971,0
215,AWWR9PY50W0Z9,638049002,717,Training,13,GPT-GPT,true,phishing,3,4,3273,1
216,A1AYQ8E01NSY5Z,140544808,1389,Training,7,GPT-GPT,true,ham,4,5,24848,0
217,A13WTEQ06V3B6D,129390671,1005,preTraining,2,GPT-GPT,false,ham,4,0,29881,1
218,A13WTEQ06V3B6D,129390671,689,preTraining,3,GPT-GPT,true,phishing,4,5,25280,1
219,AWWR9PY50W0Z9,638049002,452,Training,14,GPT-GPT,false,phishing,3,4,2331,0
220,A1YZ0ETOCJO1B2,864832498,757,preTraining,9,GPT-GPT,false,ham,4,4,43756,1
221,A13WTEQ06V3B6D,129390671,857,preTraining,4,GPT-GPT,false,ham,3,0,8553,1
222,AWWR9PY50W0Z9,638049002,325,Training,15,GPT-GPT,true,phishing,3,4,3270,1
223,A13WTEQ06V3B6D,129390671,189,preTraining,5,GPT-GPT,true,phishing,4,5,18396,1
224,AWWR9PY50W0Z9,638049002,556,Training,16,GPT-GPT,true,phishing,3,4,2197,1
225,A1AYQ8E01NSY5Z,140544808,985,Training,8,GPT-GPT,false,ham,4,1,7609,1
226,A13WTEQ06V3B6D,129390671,385,preTraining,6,GPT-GPT,true,phishing,4,3,6764,1
227,A1YZ0ETOCJO1B2,864832498,293,preTraining,10,GPT-GPT,true,phishing,2,3,44307,1
228,AWWR9PY50W0Z9,638049002,1137,Training,17,GPT-GPT,false,ham,3,4,3001,1
229,A13WTEQ06V3B6D,129390671,85,preTraining,7,GPT-GPT,true,phishing,4,3,14762,1
230,AWWR9PY50W0Z9,638049002,604,Training,18,GPT-GPT,false,phishing,3,4,4506,0
231,A1AYQ8E01NSY5Z,140544808,813,Training,9,GPT-GPT,true,ham,4,5,4089,0
232,A13WTEQ06V3B6D,129390671,1349,preTraining,8,GPT-GPT,false,ham,3,4,15825,1
233,AWWR9PY50W0Z9,638049002,1021,Training,19,GPT-GPT,true,ham,3,4,4680,0
234,AWWR9PY50W0Z9,638049002,909,Training,20,GPT-GPT,true,ham,3,4,1884,0
235,A13WTEQ06V3B6D,129390671,9,preTraining,9,GPT-GPT,true,phishing,4,3,13129,1
236,A1YZ0ETOCJO1B2,864832498,1097,Training,1,GPT-GPT,false,ham,4,3,4286,1
237,AWWR9PY50W0Z9,638049002,793,Training,21,GPT-GPT,true,ham,3,4,1561,0
238,AWWR9PY50W0Z9,638049002,225,Training,22,GPT-GPT,true,phishing,2,4,2027,1
239,AWWR9PY50W0Z9,638049002,929,Training,23,GPT-GPT,false,ham,3,4,2100,1
240,A1AYQ8E01NSY5Z,140544808,365,Training,10,GPT-GPT,true,phishing,4,5,12099,1
241,A13WTEQ06V3B6D,129390671,1377,preTraining,10,GPT-GPT,false,ham,3,2,10680,1
242,AWWR9PY50W0Z9,638049002,1293,Training,24,GPT-GPT,false,ham,3,4,2156,1
243,A13WTEQ06V3B6D,129390671,905,Training,1,GPT-GPT,false,ham,3,4,2341,1
244,A1YZ0ETOCJO1B2,864832498,592,Training,2,GPT-GPT,true,phishing,1,3,7315,1
245,A13WTEQ06V3B6D,129390671,965,Training,2,GPT-GPT,false,ham,3,4,4966,1
246,AWWR9PY50W0Z9,638049002,173,Training,25,GPT-GPT,true,phishing,4,3,3876,1
247,A1AYQ8E01NSY5Z,140544808,504,Training,11,GPT-GPT,true,phishing,4,5,6479,1
248,AWWR9PY50W0Z9,638049002,353,Training,26,GPT-GPT,true,phishing,3,4,1950,1
249,A13WTEQ06V3B6D,129390671,1405,Training,3,GPT-GPT,false,ham,2,2,1553,1
250,A1YZ0ETOCJO1B2,864832498,1033,Training,3,GPT-GPT,false,ham,3,4,4774,1
251,AWWR9PY50W0Z9,638049002,564,Training,27,GPT-GPT,true,phishing,2,4,2207,1
252,A13WTEQ06V3B6D,129390671,1385,Training,4,GPT-GPT,true,ham,2,4,1816,0
253,A1AYQ8E01NSY5Z,140544808,1457,Training,12,GPT-GPT,false,ham,4,1,10881,1
254,A13WTEQ06V3B6D,129390671,189,Training,5,GPT-GPT,true,phishing,4,2,1460,1
255,AWWR9PY50W0Z9,638049002,973,Training,28,GPT-GPT,true,ham,3,4,6033,0
256,A1YZ0ETOCJO1B2,864832498,25,Training,4,GPT-GPT,true,phishing,4,5,2900,1
257,AWWR9PY50W0Z9,638049002,552,Training,29,GPT-GPT,true,phishing,4,4,1991,1
258,A13WTEQ06V3B6D,129390671,417,Training,6,GPT-GPT,true,phishing,4,3,2172,1
259,A13WTEQ06V3B6D,129390671,1257,Training,7,GPT-GPT,false,ham,2,2,1602,1
260,AWWR9PY50W0Z9,638049002,1437,Training,30,GPT-GPT,false,ham,3,4,1873,1
261,A13WTEQ06V3B6D,129390671,25,Training,8,GPT-GPT,true,phishing,4,3,1617,1
262,AWWR9PY50W0Z9,638049002,685,Training,31,GPT-GPT,true,phishing,3,4,2058,1
263,A1YZ0ETOCJO1B2,864832498,472,Training,5,GPT-GPT,true,phishing,4,2,3556,1
264,A13WTEQ06V3B6D,129390671,121,Training,9,GPT-GPT,false,phishing,3,3,1453,0
265,A1AYQ8E01NSY5Z,140544808,1237,Training,13,GPT-GPT,true,ham,4,5,4254,0
266,A13WTEQ06V3B6D,129390671,1185,Training,10,GPT-GPT,false,ham,4,2,1609,1
267,A13WTEQ06V3B6D,129390671,1297,Training,11,GPT-GPT,false,ham,3,2,1493,1
268,A1YZ0ETOCJO1B2,864832498,401,Training,6,GPT-GPT,true,phishing,3,5,2683,1
269,A13WTEQ06V3B6D,129390671,221,Training,12,GPT-GPT,true,phishing,3,3,1200,1
270,A13WTEQ06V3B6D,129390671,225,Training,13,GPT-GPT,true,phishing,4,3,909,1
271,A13WTEQ06V3B6D,129390671,321,Training,14,GPT-GPT,true,phishing,4,3,1672,1
272,A1YZ0ETOCJO1B2,864832498,221,Training,7,GPT-GPT,true,phishing,2,3,4040,1
273,A13WTEQ06V3B6D,129390671,568,Training,15,GPT-GPT,true,phishing,4,3,1951,1
274,A1AYQ8E01NSY5Z,140544808,1189,Training,14,GPT-GPT,false,ham,4,2,18081,1
275,A13WTEQ06V3B6D,129390671,1157,Training,16,GPT-GPT,false,ham,3,2,1989,1
276,AWWR9PY50W0Z9,638049002,805,Training,32,GPT-GPT,true,ham,3,4,88218,0
277,A1YZ0ETOCJO1B2,864832498,921,Training,8,GPT-GPT,false,ham,3,4,3424,1
278,A13WTEQ06V3B6D,129390671,1281,Training,17,GPT-GPT,false,ham,2,4,1277,1
279,AWWR9PY50W0Z9,638049002,241,Training,33,GPT-GPT,true,phishing,3,4,1865,1
280,A13WTEQ06V3B6D,129390671,953,Training,18,GPT-GPT,false,ham,3,4,1744,1
281,AWWR9PY50W0Z9,638049002,1373,Training,34,GPT-GPT,true,ham,3,4,1948,0
282,A1YZ0ETOCJO1B2,864832498,809,Training,9,GPT-GPT,false,ham,4,2,3592,1
283,AWWR9PY50W0Z9,638049002,57,Training,35,GPT-GPT,true,phishing,3,4,2972,1
284,A13WTEQ06V3B6D,129390671,969,Training,19,GPT-GPT,false,ham,3,2,1431,1
285,AWWR9PY50W0Z9,638049002,989,Training,36,GPT-GPT,false,ham,3,4,3065,1
286,A13WTEQ06V3B6D,129390671,309,Training,20,GPT-GPT,false,phishing,3,3,1735,0
287,A1AYQ8E01NSY5Z,140544808,677,Training,15,GPT-GPT,true,phishing,2,5,24760,1
288,A1YZ0ETOCJO1B2,864832498,1125,Training,10,GPT-GPT,false,ham,3,2,2715,1
289,A13WTEQ06V3B6D,129390671,1177,Training,21,GPT-GPT,false,ham,3,2,1856,1
290,AWWR9PY50W0Z9,638049002,524,Training,37,GPT-GPT,true,phishing,3,4,1704,1
291,A13WTEQ06V3B6D,129390671,761,Training,22,GPT-GPT,false,ham,3,3,1107,1
292,AWWR9PY50W0Z9,638049002,1153,Training,38,GPT-GPT,false,ham,3,4,2059,1
293,A1YZ0ETOCJO1B2,864832498,637,Training,11,GPT-GPT,true,phishing,4,3,1933,1
294,A13WTEQ06V3B6D,129390671,1153,Training,23,GPT-GPT,false,ham,3,2,1064,1
295,A13WTEQ06V3B6D,129390671,624,Training,24,GPT-GPT,true,phishing,4,3,1793,1
296,A1AYQ8E01NSY5Z,140544808,1381,Training,16,GPT-GPT,false,ham,4,2,4358,1
297,AWWR9PY50W0Z9,638049002,1149,Training,39,GPT-GPT,true,ham,3,4,1541,0
298,A13WTEQ06V3B6D,129390671,329,Training,25,GPT-GPT,true,phishing,4,3,1433,1
299,AWWR9PY50W0Z9,638049002,1249,Training,40,GPT-GPT,false,ham,3,2,1509,1
300,A13WTEQ06V3B6D,129390671,81,Training,26,GPT-GPT,true,phishing,3,5,1396,1
301,A1YZ0ETOCJO1B2,864832498,1109,Training,12,GPT-GPT,true,ham,1,2,1848,0
302,A13WTEQ06V3B6D,129390671,5,Training,27,GPT-GPT,true,phishing,4,2,1222,1
303,A13WTEQ06V3B6D,129390671,480,Training,28,GPT-GPT,true,phishing,4,2,913,1
304,AWWR9PY50W0Z9,638049002,285,postTraining,1,GPT-GPT,true,phishing,3,4,3753,1
305,A1AYQ8E01NSY5Z,140544808,889,Training,17,GPT-GPT,true,ham,2,2,3084,0
306,A13WTEQ06V3B6D,129390671,1317,Training,29,GPT-GPT,true,ham,3,2,962,0
307,AIQM86IRETAJN,294224885,507,Training,39,Human-Plain,true,phishing,2,2,717992,1
308,A1YZ0ETOCJO1B2,864832498,953,Training,13,GPT-GPT,false,ham,4,3,12381,1
309,A13WTEQ06V3B6D,129390671,261,Training,30,GPT-GPT,true,phishing,4,3,1131,1
310,AWWR9PY50W0Z9,638049002,745,postTraining,2,GPT-GPT,true,phishing,3,4,14464,1
311,A13WTEQ06V3B6D,129390671,1205,Training,31,GPT-GPT,false,ham,3,0,913,1
312,AWWR9PY50W0Z9,638049002,301,postTraining,3,GPT-GPT,true,phishing,3,4,24532,1
313,A1YZ0ETOCJO1B2,864832498,1333,Training,14,GPT-GPT,false,ham,4,4,3599,1
314,A13WTEQ06V3B6D,129390671,1241,Training,32,GPT-GPT,false,ham,4,0,650,1
315,AWWR9PY50W0Z9,638049002,245,postTraining,4,GPT-GPT,false,phishing,3,4,8708,0
316,A13WTEQ06V3B6D,129390671,665,Training,33,GPT-GPT,true,phishing,4,3,1090,1
317,A1AYQ8E01NSY5Z,140544808,761,Training,18,GPT-GPT,false,ham,4,1,7684,1
318,AWWR9PY50W0Z9,638049002,769,postTraining,5,GPT-GPT,true,ham,3,4,16382,0
319,A13WTEQ06V3B6D,129390671,1237,Training,34,GPT-GPT,false,ham,3,1,1138,1
320,A1YZ0ETOCJO1B2,864832498,1309,Training,15,GPT-GPT,false,ham,4,4,2037,1
321,A13WTEQ06V3B6D,129390671,520,Training,35,GPT-GPT,true,phishing,4,3,816,1
322,A1AYQ8E01NSY5Z,140544808,929,Training,19,GPT-GPT,false,ham,4,2,3715,1
323,AWWR9PY50W0Z9,638049002,1453,postTraining,6,GPT-GPT,false,ham,3,4,13118,1
324,A13WTEQ06V3B6D,129390671,73,Training,36,GPT-GPT,true,phishing,4,3,1075,1
325,A1YZ0ETOCJO1B2,864832498,713,Training,16,GPT-GPT,true,phishing,4,3,3528,1
326,A13WTEQ06V3B6D,129390671,425,Training,37,GPT-GPT,true,phishing,4,3,705,1
327,AWWR9PY50W0Z9,638049002,500,postTraining,7,GPT-GPT,true,phishing,3,4,13250,1
328,A13WTEQ06V3B6D,129390671,941,Training,38,GPT-GPT,false,ham,4,0,609,1
329,AWWR9PY50W0Z9,638049002,969,postTraining,8,GPT-GPT,false,ham,3,4,18092,1
330,A13WTEQ06V3B6D,129390671,389,Training,39,GPT-GPT,false,phishing,4,0,1085,0
331,A1YZ0ETOCJO1B2,864832498,536,Training,17,GPT-GPT,true,phishing,4,3,1703,1
332,A13WTEQ06V3B6D,129390671,861,Training,40,GPT-GPT,false,ham,4,0,1155,1
333,AWWR9PY50W0Z9,638049002,1073,postTraining,9,GPT-GPT,false,ham,3,4,10729,1
334,A1AYQ8E01NSY5Z,140544808,149,Training,20,GPT-GPT,true,phishing,4,2,4289,1
335,A13WTEQ06V3B6D,129390671,681,postTraining,1,GPT-GPT,true,phishing,4,3,2629,1
336,A1YZ0ETOCJO1B2,864832498,409,Training,18,GPT-GPT,true,phishing,4,3,1905,1
337,A13WTEQ06V3B6D,129390671,165,postTraining,2,GPT-GPT,true,phishing,4,3,7218,1
338,A13WTEQ06V3B6D,129390671,737,postTraining,3,GPT-GPT,true,phishing,3,3,6732,1
339,A1AYQ8E01NSY5Z,140544808,697,Training,21,GPT-GPT,true,phishing,4,5,4016,1
340,A1YZ0ETOCJO1B2,864832498,1305,Training,19,GPT-GPT,false,ham,4,4,3493,1
341,A13WTEQ06V3B6D,129390671,1193,postTraining,4,GPT-GPT,false,ham,3,0,9371,1
342,AWWR9PY50W0Z9,638049002,1405,postTraining,10,GPT-GPT,false,ham,3,4,20626,1
343,A13WTEQ06V3B6D,129390671,809,postTraining,5,GPT-GPT,false,ham,3,2,6710,1
344,A3AY0315YWWNXY,625337184,519,preTraining,1,Human-Plain,true,phishing,4,5,13851,1
345,A13WTEQ06V3B6D,129390671,761,postTraining,6,GPT-GPT,false,ham,3,3,9058,1
346,A1AYQ8E01NSY5Z,140544808,1065,Training,22,GPT-GPT,false,ham,4,2,2523,1
347,A1YZ0ETOCJO1B2,864832498,616,Training,20,GPT-GPT,true,phishing,4,3,1835,1
348,A13WTEQ06V3B6D,129390671,73,postTraining,7,GPT-GPT,true,phishing,4,3,11562,1
349,A1AYQ8E01NSY5Z,140544808,1161,Training,23,GPT-GPT,false,ham,4,2,2156,1
350,A13WTEQ06V3B6D,129390671,1417,postTraining,8,GPT-GPT,false,ham,3,2,7718,1
351,A1YZ0ETOCJO1B2,864832498,1121,Training,21,GPT-GPT,false,ham,4,3,2463,1
352,AIQM86IRETAJN,294224885,1284,Training,40,Human-Plain,true,ham,3,2,1326,0
353,A13WTEQ06V3B6D,129390671,209,postTraining,9,GPT-GPT,true,phishing,4,3,11698,1
354,AIQM86IRETAJN,294224885,996,postTraining,1,Human-Plain,false,ham,3,1,2972,1
355,A1AYQ8E01NSY5Z,140544808,1365,Training,24,GPT-GPT,false,ham,4,2,5160,1
356,A3AY0315YWWNXY,625337184,495,preTraining,2,Human-Plain,true,phishing,4,4,19713,1
357,AIQM86IRETAJN,294224885,1328,postTraining,2,Human-Plain,true,ham,2,1,2718,0
358,AIQM86IRETAJN,294224885,551,postTraining,3,Human-Plain,false,phishing,3,1,1837,0
359,A13WTEQ06V3B6D,129390671,157,postTraining,10,GPT-GPT,true,phishing,3,3,11769,1
360,A1YZ0ETOCJO1B2,864832498,245,Training,22,GPT-GPT,true,phishing,4,4,1999,1
361,AIQM86IRETAJN,294224885,940,postTraining,4,Human-Plain,true,ham,3,1,2792,0
362,A3AY0315YWWNXY,625337184,0,preTraining,3,Human-Plain,true,phishing,4,5,48626,1
363,AIQM86IRETAJN,294224885,1092,postTraining,5,Human-Plain,false,ham,2,1,7836,1
364,A1AYQ8E01NSY5Z,140544808,281,Training,25,GPT-GPT,true,phishing,4,2,3014,1
365,AIQM86IRETAJN,294224885,535,postTraining,6,Human-Plain,true,phishing,2,5,1957,1
366,AIQM86IRETAJN,294224885,539,postTraining,7,Human-Plain,true,phishing,3,1,3487,1
367,AIQM86IRETAJN,294224885,1184,postTraining,8,Human-Plain,false,ham,2,2,3612,1
368,AIQM86IRETAJN,294224885,595,postTraining,9,Human-Plain,true,phishing,2,2,2016,1
369,AIQM86IRETAJN,294224885,888,postTraining,10,Human-Plain,false,ham,2,2,3265,1
370,A1YZ0ETOCJO1B2,864832498,913,Training,23,GPT-GPT,false,ham,4,4,1838,1
371,A1AYQ8E01NSY5Z,140544808,145,Training,26,GPT-GPT,false,phishing,4,2,2380,0
372,A3AY0315YWWNXY,625337184,368,preTraining,4,Human-Plain,true,phishing,4,4,11823,1
373,A1YZ0ETOCJO1B2,864832498,725,Training,24,GPT-GPT,true,phishing,4,4,1391,1
374,A3AY0315YWWNXY,625337184,1448,preTraining,5,Human-Plain,false,ham,2,0,28998,1
375,A1AYQ8E01NSY5Z,140544808,1377,Training,27,GPT-GPT,false,ham,4,2,16620,1
376,A1YZ0ETOCJO1B2,864832498,1093,Training,25,GPT-GPT,false,ham,4,2,1922,1
377,A3AY0315YWWNXY,625337184,92,preTraining,6,Human-Plain,true,phishing,4,5,25020,1
378,A1YZ0ETOCJO1B2,864832498,57,Training,26,GPT-GPT,true,phishing,4,3,2222,1
379,A1AYQ8E01NSY5Z,140544808,785,Training,28,GPT-GPT,false,ham,3,2,2796,1
380,A3AY0315YWWNXY,625337184,1108,preTraining,7,Human-Plain,false,ham,4,0,22139,1
381,A1YZ0ETOCJO1B2,864832498,1037,Training,27,GPT-GPT,false,ham,4,4,2041,1
382,A3AY0315YWWNXY,625337184,352,preTraining,8,Human-Plain,false,phishing,4,0,21744,0
383,A1YZ0ETOCJO1B2,864832498,1345,Training,28,GPT-GPT,false,ham,3,4,1802,1
384,A1AYQ8E01NSY5Z,140544808,77,Training,29,GPT-GPT,false,phishing,3,2,3230,0
385,A1YZ0ETOCJO1B2,864832498,449,Training,29,GPT-GPT,true,phishing,4,3,1790,1
386,A3AY0315YWWNXY,625337184,56,preTraining,9,Human-Plain,true,phishing,0,4,18641,1
387,A1YZ0ETOCJO1B2,864832498,496,Training,30,GPT-GPT,true,phishing,4,4,1806,1
388,A3AY0315YWWNXY,625337184,64,preTraining,10,Human-Plain,true,phishing,4,5,37164,1
389,A1YZ0ETOCJO1B2,864832498,369,Training,31,GPT-GPT,true,phishing,4,4,2010,1
390,A3AY0315YWWNXY,625337184,804,Training,1,Human-Plain,false,ham,4,1,2013,1
391,A1YZ0ETOCJO1B2,864832498,881,Training,32,GPT-GPT,false,ham,4,4,1520,1
392,A1AYQ8E01NSY5Z,140544808,133,Training,30,GPT-GPT,false,phishing,3,2,7038,0
393,A1YZ0ETOCJO1B2,864832498,109,Training,33,GPT-GPT,true,phishing,4,4,1721,1
394,A3AY0315YWWNXY,625337184,964,Training,2,Human-Plain,false,ham,4,1,4165,1
395,A3AY0315YWWNXY,625337184,688,Training,3,Human-Plain,true,phishing,4,4,3690,1
396,A1YZ0ETOCJO1B2,864832498,789,Training,34,GPT-GPT,true,ham,1,3,1779,0
397,A3AY0315YWWNXY,625337184,1064,Training,4,Human-Plain,false,ham,4,1,4099,1
398,A1AYQ8E01NSY5Z,140544808,297,Training,31,GPT-GPT,true,phishing,3,5,12138,1
399,A1YZ0ETOCJO1B2,864832498,357,Training,35,GPT-GPT,true,phishing,4,4,2863,1
400,A1YZ0ETOCJO1B2,864832498,1209,Training,36,GPT-GPT,false,ham,4,4,1700,1
401,A1YZ0ETOCJO1B2,864832498,249,Training,37,GPT-GPT,true,phishing,4,4,1459,1
402,A3AY0315YWWNXY,625337184,740,Training,5,Human-Plain,false,phishing,2,0,2824,0
403,A1AYQ8E01NSY5Z,140544808,600,Training,32,GPT-GPT,true,phishing,2,5,2898,1
404,A1YZ0ETOCJO1B2,864832498,689,Training,38,GPT-GPT,true,phishing,4,4,1875,1
405,A3AY0315YWWNXY,625337184,364,Training,6,Human-Plain,true,phishing,4,5,3469,1
406,A1YZ0ETOCJO1B2,864832498,873,Training,39,GPT-GPT,false,ham,4,0,1930,1
407,A3AY0315YWWNXY,625337184,607,Training,7,Human-Plain,true,phishing,4,4,1456,1
408,A1AYQ8E01NSY5Z,140544808,69,Training,33,GPT-GPT,true,phishing,3,2,3855,1
409,A1YZ0ETOCJO1B2,864832498,1377,Training,40,GPT-GPT,false,ham,4,4,1669,1
410,A3AY0315YWWNXY,625337184,571,Training,8,Human-Plain,true,phishing,2,4,1609,1
411,A3AY0315YWWNXY,625337184,420,Training,9,Human-Plain,false,phishing,4,1,1609,0
412,A1AYQ8E01NSY5Z,140544808,177,Training,34,GPT-GPT,true,phishing,4,5,3426,1
413,A1YZ0ETOCJO1B2,864832498,665,postTraining,1,GPT-GPT,true,phishing,4,4,3879,1
414,A3AY0315YWWNXY,625337184,44,Training,10,Human-Plain,true,phishing,4,4,9542,1
415,A1YZ0ETOCJO1B2,864832498,97,postTraining,2,GPT-GPT,true,phishing,4,5,16576,1
416,A3AY0315YWWNXY,625337184,1300,Training,11,Human-Plain,false,ham,4,1,1371,1
417,A3AY0315YWWNXY,625337184,575,Training,12,Human-Plain,true,phishing,4,5,2236,1
418,A1YZ0ETOCJO1B2,864832498,1149,postTraining,3,GPT-GPT,false,ham,4,0,16747,1
419,A3AY0315YWWNXY,625337184,48,Training,13,Human-Plain,true,phishing,4,5,1477,1
420,A1YZ0ETOCJO1B2,864832498,209,postTraining,4,GPT-GPT,true,phishing,4,5,17034,1
421,A3AY0315YWWNXY,625337184,555,Training,14,Human-Plain,true,phishing,4,5,1249,1
422,A1AYQ8E01NSY5Z,140544808,592,Training,35,GPT-GPT,true,phishing,3,2,6242,1
423,A1YZ0ETOCJO1B2,864832498,137,postTraining,5,GPT-GPT,true,phishing,4,4,12979,1
424,A3AY0315YWWNXY,625337184,1200,Training,15,Human-Plain,false,ham,4,1,1250,1
425,A1YZ0ETOCJO1B2,864832498,1229,postTraining,6,GPT-GPT,false,ham,4,0,11539,1
426,A3AY0315YWWNXY,625337184,940,Training,16,Human-Plain,false,ham,4,3,1241,1
427,A1YZ0ETOCJO1B2,864832498,1409,postTraining,7,GPT-GPT,false,ham,4,4,14171,1
428,A3AY0315YWWNXY,625337184,332,Training,17,Human-Plain,true,phishing,4,5,1331,1
429,A1YZ0ETOCJO1B2,864832498,237,postTraining,8,GPT-GPT,true,phishing,4,4,17446,1
430,A3AY0315YWWNXY,625337184,1416,Training,18,Human-Plain,false,ham,4,1,1231,1
431,A1YZ0ETOCJO1B2,864832498,1397,postTraining,9,GPT-GPT,false,ham,4,0,13011,1
432,A1AYQ8E01NSY5Z,140544808,468,Training,36,GPT-GPT,true,phishing,4,5,2349,1
433,A3AY0315YWWNXY,625337184,1336,Training,19,Human-Plain,false,ham,4,1,1857,1
434,A1YZ0ETOCJO1B2,864832498,1341,postTraining,10,GPT-GPT,false,ham,4,4,18818,1
435,A3AY0315YWWNXY,625337184,784,Training,20,Human-Plain,false,ham,2,3,1718,1
436,A1AYQ8E01NSY5Z,140544808,901,Training,37,GPT-GPT,false,ham,3,2,3158,1
437,A3AY0315YWWNXY,625337184,1176,Training,21,Human-Plain,false,ham,3,0,1432,1
438,A1AYQ8E01NSY5Z,140544808,37,Training,38,GPT-GPT,true,phishing,4,2,2976,1
439,A3AY0315YWWNXY,625337184,1216,Training,22,Human-Plain,false,ham,4,0,1551,1
440,A3AY0315YWWNXY,625337184,1036,Training,23,Human-Plain,true,ham,2,4,1470,0
441,A1AYQ8E01NSY5Z,140544808,885,Training,39,GPT-GPT,false,ham,3,2,2986,1
442,A3AY0315YWWNXY,625337184,684,Training,24,Human-Plain,true,phishing,2,4,1503,1
443,A3AY0315YWWNXY,625337184,728,Training,25,Human-Plain,true,phishing,3,4,1371,1
444,A1AYQ8E01NSY5Z,140544808,65,Training,40,GPT-GPT,true,phishing,3,2,2945,1
445,A1P6OXEJ86HQRM,292558963,1423,preTraining,1,Human-GPT,false,ham,2,2,29893,1
446,A3AY0315YWWNXY,625337184,900,Training,26,Human-Plain,false,ham,4,0,1021,1
447,A1P6OXEJ86HQRM,292558963,219,preTraining,2,Human-GPT,true,phishing,3,4,45213,1
448,A3AY0315YWWNXY,625337184,920,Training,27,Human-Plain,false,ham,3,1,1258,1
449,A1AYQ8E01NSY5Z,140544808,761,postTraining,1,GPT-GPT,false,ham,3,2,3681,1
450,A1P6OXEJ86HQRM,292558963,819,preTraining,3,Human-GPT,false,ham,3,4,25053,1
451,A3AY0315YWWNXY,625337184,523,Training,28,Human-Plain,true,phishing,0,5,1584,1
452,A1P6OXEJ86HQRM,292558963,159,preTraining,4,Human-GPT,false,phishing,1,4,32295,0
453,A1AYQ8E01NSY5Z,140544808,985,postTraining,2,GPT-GPT,true,ham,2,5,33291,0
454,A3AY0315YWWNXY,625337184,1132,Training,29,Human-Plain,false,ham,4,1,1785,1
455,A1AYQ8E01NSY5Z,140544808,301,postTraining,3,GPT-GPT,true,phishing,4,5,53111,1
456,A1P6OXEJ86HQRM,292558963,59,preTraining,5,Human-GPT,true,phishing,4,5,23482,1
457,A3AY0315YWWNXY,625337184,1024,Training,30,Human-Plain,false,ham,4,2,1057,1
458,A1AYQ8E01NSY5Z,140544808,1389,postTraining,4,GPT-GPT,false,ham,3,1,16176,1
459,A3AY0315YWWNXY,625337184,340,Training,31,Human-Plain,true,phishing,4,3,1163,1
460,A1P6OXEJ86HQRM,292558963,111,preTraining,6,Human-GPT,true,phishing,3,5,23916,1
461,A1P6OXEJ86HQRM,292558963,315,preTraining,7,Human-GPT,true,phishing,4,5,24928,1
462,A3AY0315YWWNXY,625337184,1048,Training,32,Human-Plain,false,ham,2,0,1359,1
463,A1AYQ8E01NSY5Z,140544808,488,postTraining,5,GPT-GPT,true,phishing,2,5,16873,1
464,A1P6OXEJ86HQRM,292558963,1295,preTraining,8,Human-GPT,false,ham,2,4,14571,1
465,A3AY0315YWWNXY,625337184,515,Training,33,Human-Plain,true,phishing,2,4,1411,1
466,A1AYQ8E01NSY5Z,140544808,1425,postTraining,6,GPT-GPT,false,ham,4,2,32168,1
467,A3AY0315YWWNXY,625337184,595,Training,34,Human-Plain,true,phishing,4,3,1356,1
468,A1P6OXEJ86HQRM,292558963,67,preTraining,9,Human-GPT,true,phishing,3,5,12474,1
469,A3AY0315YWWNXY,625337184,296,Training,35,Human-Plain,true,phishing,4,5,1160,1
470,A1AYQ8E01NSY5Z,140544808,209,postTraining,7,GPT-GPT,true,phishing,4,5,17768,1
471,A1P6OXEJ86HQRM,292558963,103,preTraining,10,Human-GPT,true,phishing,4,5,17313,1
472,A3AY0315YWWNXY,625337184,316,Training,36,Human-Plain,true,phishing,3,3,1019,1
473,A1P6OXEJ86HQRM,292558963,151,Training,1,Human-GPT,true,phishing,4,5,4162,1
474,A1AYQ8E01NSY5Z,140544808,161,postTraining,8,GPT-GPT,true,phishing,3,5,18247,1
475,A3AY0315YWWNXY,625337184,1224,Training,37,Human-Plain,false,ham,4,3,1397,1
476,A3AY0315YWWNXY,625337184,188,Training,38,Human-Plain,true,phishing,4,5,1023,1
477,A1P6OXEJ86HQRM,292558963,1163,Training,2,Human-GPT,false,ham,2,4,8493,1
478,A3AY0315YWWNXY,625337184,852,Training,39,Human-Plain,false,ham,4,0,1096,1
479,A1AYQ8E01NSY5Z,140544808,937,postTraining,9,GPT-GPT,true,ham,3,5,22848,0
480,A1P6OXEJ86HQRM,292558963,1071,Training,3,Human-GPT,false,ham,1,4,4007,1
481,A1AYQ8E01NSY5Z,140544808,1369,postTraining,10,GPT-GPT,false,ham,3,2,31851,1
482,A3AY0315YWWNXY,625337184,1272,Training,40,Human-Plain,false,ham,4,1,1350,1
483,A1P6OXEJ86HQRM,292558963,263,Training,4,Human-GPT,true,phishing,3,5,3043,1
484,A3AY0315YWWNXY,625337184,1124,postTraining,1,Human-Plain,false,ham,3,0,1634,1
485,A1P6OXEJ86HQRM,292558963,363,Training,5,Human-GPT,true,phishing,4,5,2481,1
486,A3AY0315YWWNXY,625337184,1360,postTraining,2,Human-Plain,false,ham,4,0,16083,1
487,A3AY0315YWWNXY,625337184,148,postTraining,3,Human-Plain,true,phishing,4,5,17368,1
488,A1P6OXEJ86HQRM,292558963,871,Training,6,Human-GPT,false,ham,1,4,1584,1
489,A1P6OXEJ86HQRM,292558963,1215,Training,7,Human-GPT,false,ham,3,4,2101,1
490,A3AY0315YWWNXY,625337184,1052,postTraining,4,Human-Plain,false,ham,4,0,8247,1
491,A1P6OXEJ86HQRM,292558963,594,Training,8,Human-GPT,true,phishing,4,4,1897,1
492,A3AY0315YWWNXY,625337184,228,postTraining,5,Human-Plain,true,phishing,4,4,21352,1
493,A3AY0315YWWNXY,625337184,448,postTraining,6,Human-Plain,true,phishing,4,5,16878,1
494,A1P6OXEJ86HQRM,292558963,995,Training,9,Human-GPT,false,ham,2,2,1788,1
495,A3AY0315YWWNXY,625337184,555,postTraining,7,Human-Plain,true,phishing,4,5,8062,1
496,A3AY0315YWWNXY,625337184,184,postTraining,8,Human-Plain,true,phishing,4,3,8595,1
497,A1P6OXEJ86HQRM,292558963,167,Training,10,Human-GPT,true,phishing,4,5,2007,1
498,A1P6OXEJ86HQRM,292558963,474,Training,11,Human-GPT,true,phishing,4,5,1373,1
499,A3AY0315YWWNXY,625337184,916,postTraining,9,Human-Plain,false,ham,2,0,6984,1
500,A3AY0315YWWNXY,625337184,1028,postTraining,10,Human-Plain,false,ham,4,0,27018,1
501,A1P6OXEJ86HQRM,292558963,963,Training,12,Human-GPT,false,ham,3,2,1299,1
502,A1P6OXEJ86HQRM,292558963,1247,Training,13,Human-GPT,false,ham,2,4,1299,1
503,A1ATQ2AVZB2ND5,190399997,1109,preTraining,1,GPT-GPT,false,ham,3,0,95980,1
504,A1P6OXEJ86HQRM,292558963,203,Training,14,Human-GPT,true,phishing,4,5,1317,1
505,A1P6OXEJ86HQRM,292558963,1063,Training,15,Human-GPT,true,ham,1,5,1335,0
506,A1P6OXEJ86HQRM,292558963,562,Training,16,Human-GPT,true,phishing,3,5,2677,1
507,A1ATQ2AVZB2ND5,190399997,345,preTraining,2,GPT-GPT,true,phishing,4,1,51848,1
508,A1P6OXEJ86HQRM,292558963,815,Training,17,Human-GPT,false,ham,3,4,1101,1
509,A1P6OXEJ86HQRM,292558963,1175,Training,18,Human-GPT,true,ham,3,5,1612,0
510,A1ATQ2AVZB2ND5,190399997,536,preTraining,3,GPT-GPT,true,phishing,4,1,62332,1
511,A1P6OXEJ86HQRM,292558963,1255,Training,19,Human-GPT,false,ham,3,4,2420,1
512,A1P6OXEJ86HQRM,292558963,39,Training,20,Human-GPT,true,phishing,4,5,3043,1
513,A1ATQ2AVZB2ND5,190399997,905,preTraining,4,GPT-GPT,false,ham,3,0,35719,1
514,A1P6OXEJ86HQRM,292558963,1035,Training,21,Human-GPT,false,ham,3,4,1579,1
515,A1ATQ2AVZB2ND5,190399997,653,preTraining,5,GPT-GPT,true,phishing,3,1,34381,1
516,A1P6OXEJ86HQRM,292558963,899,Training,22,Human-GPT,false,ham,1,2,1673,1
517,A1ATQ2AVZB2ND5,190399997,1093,preTraining,6,GPT-GPT,false,ham,4,0,21886,1
518,A1P6OXEJ86HQRM,292558963,327,Training,23,Human-GPT,false,phishing,1,4,1635,0
519,A1P6OXEJ86HQRM,292558963,295,Training,24,Human-GPT,true,phishing,2,5,1904,1
520,A1ATQ2AVZB2ND5,190399997,721,preTraining,7,GPT-GPT,true,phishing,3,3,23778,1
521,A1P6OXEJ86HQRM,292558963,1259,Training,25,Human-GPT,true,ham,0,4,1874,0
522,A1ATQ2AVZB2ND5,190399997,1285,preTraining,8,GPT-GPT,false,ham,3,0,44696,1
523,A1P6OXEJ86HQRM,292558963,403,Training,26,Human-GPT,false,phishing,1,4,1451,0
524,A1ATQ2AVZB2ND5,190399997,681,preTraining,9,GPT-GPT,true,phishing,3,5,15601,1
525,A1P6OXEJ86HQRM,292558963,1399,Training,27,Human-GPT,false,ham,2,4,6096,1
526,A1P6OXEJ86HQRM,292558963,735,Training,28,Human-GPT,false,phishing,2,2,1871,0
527,A1P6OXEJ86HQRM,292558963,1371,Training,29,Human-GPT,true,ham,3,5,2464,0
528,A1ATQ2AVZB2ND5,190399997,1225,preTraining,10,GPT-GPT,false,ham,3,0,18468,1
529,A1P6OXEJ86HQRM,292558963,143,Training,30,Human-GPT,true,phishing,2,5,4087,1
530,A1P6OXEJ86HQRM,292558963,1195,Training,31,Human-GPT,true,ham,3,5,1750,0
531,A1ATQ2AVZB2ND5,190399997,592,Training,1,GPT-GPT,true,phishing,3,3,5781,1
532,A1P6OXEJ86HQRM,292558963,675,Training,32,Human-GPT,true,phishing,4,5,1650,1
533,A1P6OXEJ86HQRM,292558963,147,Training,33,Human-GPT,false,phishing,3,4,1740,0
534,A1ATQ2AVZB2ND5,190399997,673,Training,2,GPT-GPT,true,phishing,3,1,16476,1
535,A1P6OXEJ86HQRM,292558963,975,Training,34,Human-GPT,true,ham,2,5,3708,0
536,A1P6OXEJ86HQRM,292558963,391,Training,35,Human-GPT,true,phishing,4,5,1403,1
537,A1P6OXEJ86HQRM,292558963,7,Training,36,Human-GPT,true,phishing,4,5,3375,1
538,A1ATQ2AVZB2ND5,190399997,520,Training,3,GPT-GPT,true,phishing,3,1,6449,1
539,A1P6OXEJ86HQRM,292558963,1251,Training,37,Human-GPT,false,ham,2,4,1413,1
540,A2FB5UQTR3E0NX,877180979,1316,preTraining,1,Human-Plain,false,ham,4,3,17581,1
541,A1ATQ2AVZB2ND5,190399997,437,Training,4,GPT-GPT,true,phishing,3,3,6474,1
542,A1P6OXEJ86HQRM,292558963,1047,Training,38,Human-GPT,false,ham,1,4,1663,1
543,A2FB5UQTR3E0NX,877180979,1312,preTraining,2,Human-Plain,false,ham,4,1,36885,1
544,A1P6OXEJ86HQRM,292558963,482,Training,39,Human-GPT,true,phishing,3,5,1615,1
545,A1ATQ2AVZB2ND5,190399997,524,Training,5,GPT-GPT,true,phishing,3,2,11684,1
546,A1P6OXEJ86HQRM,292558963,19,Training,40,Human-GPT,true,phishing,4,5,2128,1
547,A2FB5UQTR3E0NX,877180979,440,preTraining,3,Human-Plain,false,phishing,3,3,13601,0
548,A1ATQ2AVZB2ND5,190399997,528,Training,6,GPT-GPT,true,phishing,3,2,3865,1
549,A1P6OXEJ86HQRM,292558963,1347,postTraining,1,Human-GPT,false,ham,2,4,1557,1
550,A2FB5UQTR3E0NX,877180979,296,preTraining,4,Human-Plain,true,phishing,4,4,35413,1
551,A1P6OXEJ86HQRM,292558963,590,postTraining,2,Human-GPT,true,phishing,4,5,15639,1
552,A1ATQ2AVZB2ND5,190399997,568,Training,7,GPT-GPT,true,phishing,3,1,5009,1
553,A2FB5UQTR3E0NX,877180979,1120,preTraining,5,Human-Plain,false,ham,4,3,12828,1
554,A1P6OXEJ86HQRM,292558963,823,postTraining,3,Human-GPT,false,ham,3,4,12383,1
555,A1P6OXEJ86HQRM,292558963,679,postTraining,4,Human-GPT,true,phishing,4,5,14159,1
556,A2FB5UQTR3E0NX,877180979,796,preTraining,6,Human-Plain,false,ham,4,3,20172,1
557,A2FB5UQTR3E0NX,877180979,0,preTraining,7,Human-Plain,true,phishing,4,4,16982,1
558,A1P6OXEJ86HQRM,292558963,795,postTraining,5,Human-GPT,false,ham,2,2,10516,1
559,A2FB5UQTR3E0NX,877180979,244,preTraining,8,Human-Plain,true,phishing,4,4,9215,1
560,A1ATQ2AVZB2ND5,190399997,373,Training,8,GPT-GPT,true,phishing,3,1,5134,1
561,A1P6OXEJ86HQRM,292558963,1151,postTraining,6,Human-GPT,false,ham,3,4,17485,1
562,A2FB5UQTR3E0NX,877180979,495,preTraining,9,Human-Plain,true,phishing,4,4,7248,1
563,A1ATQ2AVZB2ND5,190399997,425,Training,9,GPT-GPT,true,phishing,3,1,5388,1
564,A1P6OXEJ86HQRM,292558963,1307,postTraining,7,Human-GPT,true,ham,4,5,9896,0
565,A2FB5UQTR3E0NX,877180979,1208,preTraining,10,Human-Plain,false,ham,4,1,12028,1
566,A1P6OXEJ86HQRM,292558963,474,postTraining,8,Human-GPT,true,phishing,4,5,10976,1
567,A2FB5UQTR3E0NX,877180979,607,Training,1,Human-Plain,true,phishing,4,4,2576,1
568,A1P6OXEJ86HQRM,292558963,283,postTraining,9,Human-GPT,true,phishing,4,5,9924,1
569,A1ATQ2AVZB2ND5,190399997,413,Training,10,GPT-GPT,true,phishing,3,1,9448,1
570,A2FB5UQTR3E0NX,877180979,424,Training,2,Human-Plain,true,phishing,4,4,4140,1
571,A2FB5UQTR3E0NX,877180979,396,Training,3,Human-Plain,true,phishing,4,4,1325,1
572,A1P6OXEJ86HQRM,292558963,791,postTraining,10,Human-GPT,true,ham,1,5,9064,0
573,A1ATQ2AVZB2ND5,190399997,484,Training,11,GPT-GPT,true,phishing,3,1,8094,1
574,A2FB5UQTR3E0NX,877180979,980,Training,4,Human-Plain,false,ham,4,2,1225,1
575,A1ATQ2AVZB2ND5,190399997,472,Training,12,GPT-GPT,true,phishing,3,1,7203,1
576,A2FB5UQTR3E0NX,877180979,36,Training,5,Human-Plain,true,phishing,4,4,1314,1
577,A1ATQ2AVZB2ND5,190399997,121,Training,13,GPT-GPT,true,phishing,3,1,8903,1
578,A2FB5UQTR3E0NX,877180979,1056,Training,6,Human-Plain,false,ham,4,3,1396,1
579,A1ATQ2AVZB2ND5,190399997,389,Training,14,GPT-GPT,true,phishing,3,1,6051,1
580,A2FB5UQTR3E0NX,877180979,860,Training,7,Human-Plain,false,ham,4,2,1103,1
581,A2FB5UQTR3E0NX,877180979,92,Training,8,Human-Plain,true,phishing,4,4,1941,1
582,A2FB5UQTR3E0NX,877180979,720,Training,9,Human-Plain,true,phishing,4,4,1854,1
583,A2FB5UQTR3E0NX,877180979,240,Training,10,Human-Plain,true,phishing,4,4,1383,1
584,A1ATQ2AVZB2ND5,190399997,1101,Training,15,GPT-GPT,true,ham,3,0,4284,0
585,A2FB5UQTR3E0NX,877180979,1084,Training,11,Human-Plain,false,ham,4,2,1385,1
586,A1ATQ2AVZB2ND5,190399997,49,Training,16,GPT-GPT,true,phishing,3,0,6308,1
587,A2FB5UQTR3E0NX,877180979,308,Training,12,Human-Plain,true,phishing,4,4,1020,1
588,A2FB5UQTR3E0NX,877180979,684,Training,13,Human-Plain,true,phishing,4,4,908,1
589,A1ATQ2AVZB2ND5,190399997,797,Training,17,GPT-GPT,false,ham,3,0,4810,1
590,A1ATQ2AVZB2ND5,190399997,1057,Training,18,GPT-GPT,true,ham,3,1,4805,0
591,A2FB5UQTR3E0NX,877180979,992,Training,14,Human-Plain,false,ham,4,2,3388,1
592,A2FB5UQTR3E0NX,877180979,248,Training,15,Human-Plain,true,phishing,4,4,1175,1
593,A1ATQ2AVZB2ND5,190399997,85,Training,19,GPT-GPT,true,phishing,3,1,17330,1
594,A2FB5UQTR3E0NX,877180979,680,Training,16,Human-Plain,true,phishing,4,4,850,1
595,A2FB5UQTR3E0NX,877180979,1332,Training,17,Human-Plain,false,ham,4,3,992,1
596,A2FB5UQTR3E0NX,877180979,236,Training,18,Human-Plain,true,phishing,4,4,875,1
597,A1ATQ2AVZB2ND5,190399997,761,Training,20,GPT-GPT,false,ham,3,3,6492,1
598,A2FB5UQTR3E0NX,877180979,880,Training,19,Human-Plain,true,ham,4,4,987,0
599,A2FB5UQTR3E0NX,877180979,1248,Training,20,Human-Plain,false,ham,4,4,2751,1
600,A2FB5UQTR3E0NX,877180979,168,Training,21,Human-Plain,false,phishing,3,0,1606,0
601,A1ATQ2AVZB2ND5,190399997,1433,Training,21,GPT-GPT,true,ham,3,3,5180,0
602,A2FB5UQTR3E0NX,877180979,1276,Training,22,Human-Plain,false,ham,4,4,2218,1
603,A2FB5UQTR3E0NX,877180979,1188,Training,23,Human-Plain,false,ham,4,3,1198,1
604,A1ATQ2AVZB2ND5,190399997,1249,Training,22,GPT-GPT,false,ham,3,0,13247,1
605,A2FB5UQTR3E0NX,877180979,412,Training,24,Human-Plain,true,phishing,4,4,969,1
606,A2FB5UQTR3E0NX,877180979,292,Training,25,Human-Plain,false,phishing,4,3,688,0
607,A1ATQ2AVZB2ND5,190399997,512,Training,23,GPT-GPT,false,phishing,3,1,3651,0
608,A2FB5UQTR3E0NX,877180979,644,Training,26,Human-Plain,true,phishing,4,4,5409,1
609,A1ATQ2AVZB2ND5,190399997,1177,Training,24,GPT-GPT,false,ham,3,0,3812,1
610,A2FB5UQTR3E0NX,877180979,583,Training,27,Human-Plain,true,phishing,4,4,1616,1
611,A1ATQ2AVZB2ND5,190399997,929,Training,25,GPT-GPT,false,ham,3,0,3889,1
612,A2FB5UQTR3E0NX,877180979,344,Training,28,Human-Plain,true,phishing,4,4,1555,1
613,A2FB5UQTR3E0NX,877180979,768,Training,29,Human-Plain,false,ham,4,4,872,1
614,A1ATQ2AVZB2ND5,190399997,909,Training,26,GPT-GPT,false,ham,3,3,3090,1
615,A2FB5UQTR3E0NX,877180979,928,Training,30,Human-Plain,true,ham,4,4,899,0
616,A2FB5UQTR3E0NX,877180979,432,Training,31,Human-Plain,true,phishing,4,4,2760,1
617,A1ATQ2AVZB2ND5,190399997,893,Training,27,GPT-GPT,false,ham,3,3,4059,1
618,A2FB5UQTR3E0NX,877180979,996,Training,32,Human-Plain,false,ham,3,3,830,1
619,A1ATQ2AVZB2ND5,190399997,1457,Training,28,GPT-GPT,false,ham,3,0,4220,1
620,A2FB5UQTR3E0NX,877180979,1092,Training,33,Human-Plain,false,ham,3,3,985,1
621,A2FB5UQTR3E0NX,877180979,1012,Training,34,Human-Plain,false,ham,4,4,787,1
622,A1ATQ2AVZB2ND5,190399997,1025,Training,29,GPT-GPT,false,ham,3,0,4022,1
623,A2FB5UQTR3E0NX,877180979,852,Training,35,Human-Plain,false,ham,4,4,808,1
624,A1ATQ2AVZB2ND5,190399997,1385,Training,30,GPT-GPT,false,ham,3,0,2878,1
625,A2FB5UQTR3E0NX,877180979,856,Training,36,Human-Plain,false,ham,4,4,1110,1
626,A1ATQ2AVZB2ND5,190399997,881,Training,31,GPT-GPT,false,ham,3,0,3282,1
627,A2FB5UQTR3E0NX,877180979,296,Training,37,Human-Plain,true,phishing,4,4,750,1
628,A2FB5UQTR3E0NX,877180979,1180,Training,38,Human-Plain,false,ham,4,4,1236,1
629,A1ATQ2AVZB2ND5,190399997,901,Training,32,GPT-GPT,false,ham,3,0,3738,1
630,A2FB5UQTR3E0NX,877180979,1112,Training,39,Human-Plain,false,ham,4,4,1482,1
631,A1ATQ2AVZB2ND5,190399997,353,Training,33,GPT-GPT,true,phishing,3,1,2977,1
632,A2FB5UQTR3E0NX,877180979,1388,Training,40,Human-Plain,false,ham,4,4,906,1
633,A1ATQ2AVZB2ND5,190399997,237,Training,34,GPT-GPT,false,phishing,3,3,4582,0
634,A1ATQ2AVZB2ND5,190399997,1437,Training,35,GPT-GPT,true,ham,3,3,5634,0
635,A2FB5UQTR3E0NX,877180979,992,postTraining,1,Human-Plain,false,ham,4,2,2788,1
636,A2FB5UQTR3E0NX,877180979,491,postTraining,2,Human-Plain,true,phishing,4,4,34446,1
637,A2FB5UQTR3E0NX,877180979,428,postTraining,3,Human-Plain,true,phishing,4,4,6765,1
638,A2FB5UQTR3E0NX,877180979,120,postTraining,4,Human-Plain,true,phishing,4,4,7651,1
639,A2FB5UQTR3E0NX,877180979,780,postTraining,5,Human-Plain,false,ham,4,4,6190,1
640,A1ATQ2AVZB2ND5,190399997,1293,Training,36,GPT-GPT,true,ham,3,1,22587,0
641,A2FB5UQTR3E0NX,877180979,660,postTraining,6,Human-Plain,true,phishing,3,4,8519,1
642,A1ATQ2AVZB2ND5,190399997,785,Training,37,GPT-GPT,false,ham,3,0,3729,1
643,A1ATQ2AVZB2ND5,190399997,737,Training,38,GPT-GPT,true,phishing,3,1,4577,1
644,A2FB5UQTR3E0NX,877180979,872,postTraining,7,Human-Plain,false,ham,2,4,10768,1
645,A2FB5UQTR3E0NX,877180979,56,postTraining,8,Human-Plain,true,phishing,4,4,28450,1
646,A1ATQ2AVZB2ND5,190399997,1081,Training,39,GPT-GPT,false,ham,3,0,6501,1
647,A2FB5UQTR3E0NX,877180979,960,postTraining,9,Human-Plain,false,ham,4,3,5997,1
648,A1ATQ2AVZB2ND5,190399997,1233,Training,40,GPT-GPT,false,ham,3,0,3799,1
649,A2FB5UQTR3E0NX,877180979,368,postTraining,10,Human-Plain,true,phishing,4,4,20245,1
650,A1ATQ2AVZB2ND5,190399997,677,postTraining,1,GPT-GPT,true,phishing,4,0,20158,1
651,A1ATQ2AVZB2ND5,190399997,269,postTraining,2,GPT-GPT,true,phishing,3,1,30674,1
652,A1ATQ2AVZB2ND5,190399997,1141,postTraining,3,GPT-GPT,true,ham,3,0,13190,0
653,A1ATQ2AVZB2ND5,190399997,217,postTraining,4,GPT-GPT,true,phishing,3,2,48782,1
654,A1ATQ2AVZB2ND5,190399997,817,postTraining,5,GPT-GPT,false,ham,3,0,12865,1
655,A1ATQ2AVZB2ND5,190399997,973,postTraining,6,GPT-GPT,true,ham,3,1,10380,0
656,A1ATQ2AVZB2ND5,190399997,1009,postTraining,7,GPT-GPT,false,ham,3,1,37444,1
657,A1ATQ2AVZB2ND5,190399997,341,postTraining,8,GPT-GPT,true,phishing,4,0,7886,1
658,A1ATQ2AVZB2ND5,190399997,781,postTraining,9,GPT-GPT,false,ham,3,1,10253,1
659,A1ATQ2AVZB2ND5,190399997,1305,postTraining,10,GPT-GPT,false,ham,3,0,479317,1
660,AXPZAP62ZYWP8,795496953,163,preTraining,1,Human-GPT,false,phishing,4,4,42008,0
661,AXPZAP62ZYWP8,795496953,311,preTraining,2,Human-GPT,true,phishing,3,5,20535,1
662,AXPZAP62ZYWP8,795496953,443,preTraining,3,Human-GPT,true,phishing,1,4,13020,1
663,AXPZAP62ZYWP8,795496953,371,preTraining,4,Human-GPT,false,phishing,1,4,22650,0
664,AXPZAP62ZYWP8,795496953,558,preTraining,5,Human-GPT,true,phishing,3,5,19795,1
665,AXPZAP62ZYWP8,795496953,1171,preTraining,6,Human-GPT,false,ham,2,5,15509,1
666,AXPZAP62ZYWP8,795496953,995,preTraining,7,Human-GPT,false,ham,3,4,10154,1
667,AXPZAP62ZYWP8,795496953,795,preTraining,8,Human-GPT,false,ham,2,3,11004,1
668,AXPZAP62ZYWP8,795496953,1371,preTraining,9,Human-GPT,false,ham,1,5,52176,1
669,AXPZAP62ZYWP8,795496953,554,preTraining,10,Human-GPT,true,phishing,3,5,8316,1
670,AXPZAP62ZYWP8,795496953,971,Training,1,Human-GPT,false,ham,3,1,3934,1
671,AXPZAP62ZYWP8,795496953,636,Training,2,Human-GPT,false,phishing,3,1,4627,0
672,AXPZAP62ZYWP8,795496953,1371,Training,3,Human-GPT,true,ham,3,4,4508,0
673,AXPZAP62ZYWP8,795496953,590,Training,4,Human-GPT,false,phishing,3,4,2583,0
674,AXPZAP62ZYWP8,795496953,407,Training,5,Human-GPT,true,phishing,2,4,3723,1
675,AXPZAP62ZYWP8,795496953,919,Training,6,Human-GPT,false,ham,3,1,3088,1
676,AXPZAP62ZYWP8,795496953,1343,Training,7,Human-GPT,false,ham,3,0,1755,1
677,AXPZAP62ZYWP8,795496953,1271,Training,8,Human-GPT,false,ham,3,0,1945,1
678,AXPZAP62ZYWP8,795496953,1103,Training,9,Human-GPT,true,ham,3,5,1984,0
679,AXPZAP62ZYWP8,795496953,683,Training,10,Human-GPT,true,phishing,2,5,2627,1
680,AXPZAP62ZYWP8,795496953,963,Training,11,Human-GPT,true,ham,2,4,2680,0
681,AXPZAP62ZYWP8,795496953,15,Training,12,Human-GPT,true,phishing,3,4,1362,1
682,AXPZAP62ZYWP8,795496953,899,Training,13,Human-GPT,true,ham,3,4,2062,0
683,AXPZAP62ZYWP8,795496953,1423,Training,14,Human-GPT,true,ham,3,4,977,0
684,AXPZAP62ZYWP8,795496953,279,Training,15,Human-GPT,true,phishing,3,5,1349,1
685,AXPZAP62ZYWP8,795496953,955,Training,16,Human-GPT,false,ham,3,5,2333,1
686,AXPZAP62ZYWP8,795496953,1039,Training,17,Human-GPT,true,ham,3,4,5255,0
687,AXPZAP62ZYWP8,795496953,1119,Training,18,Human-GPT,false,ham,3,2,1338,1
688,AXPZAP62ZYWP8,795496953,295,Training,19,Human-GPT,true,phishing,1,2,1685,1
689,AXPZAP62ZYWP8,795496953,1007,Training,20,Human-GPT,true,ham,3,4,1236,0
690,AXPZAP62ZYWP8,795496953,1075,Training,21,Human-GPT,true,ham,2,5,1989,0
691,AXPZAP62ZYWP8,795496953,731,Training,22,Human-GPT,true,phishing,1,3,977,1
692,AXPZAP62ZYWP8,795496953,558,Training,23,Human-GPT,true,phishing,2,5,2123,1
693,AXPZAP62ZYWP8,795496953,1003,Training,24,Human-GPT,true,ham,2,4,5589,0
694,AXPZAP62ZYWP8,795496953,311,Training,25,Human-GPT,true,phishing,3,3,941,1
695,AXPZAP62ZYWP8,795496953,51,Training,26,Human-GPT,true,phishing,0,2,2403,1
696,AXPZAP62ZYWP8,795496953,991,Training,27,Human-GPT,true,ham,4,5,2183,0
697,AXPZAP62ZYWP8,795496953,315,Training,28,Human-GPT,true,phishing,2,4,820,1
698,AXPZAP62ZYWP8,795496953,466,Training,29,Human-GPT,false,phishing,2,2,978,0
699,AXPZAP62ZYWP8,795496953,439,Training,30,Human-GPT,false,phishing,2,3,929,0
700,AXPZAP62ZYWP8,795496953,843,Training,31,Human-GPT,false,ham,2,2,756,1
701,AXPZAP62ZYWP8,795496953,359,Training,32,Human-GPT,false,phishing,3,3,862,0
702,AXPZAP62ZYWP8,795496953,1195,Training,33,Human-GPT,false,ham,1,4,775,1
703,AXPZAP62ZYWP8,795496953,691,Training,34,Human-GPT,true,phishing,2,4,2107,1
704,AXPZAP62ZYWP8,795496953,235,Training,35,Human-GPT,true,phishing,3,5,1739,1
705,AXPZAP62ZYWP8,795496953,903,Training,36,Human-GPT,true,ham,2,4,1185,0
706,AXPZAP62ZYWP8,795496953,155,Training,37,Human-GPT,false,phishing,2,3,871,0
707,AXPZAP62ZYWP8,795496953,735,Training,38,Human-GPT,true,phishing,3,4,500,1
708,AXPZAP62ZYWP8,795496953,47,Training,39,Human-GPT,false,phishing,1,3,638,0
709,AXPZAP62ZYWP8,795496953,927,Training,40,Human-GPT,true,ham,3,4,840,0
710,AXPZAP62ZYWP8,795496953,339,postTraining,1,Human-GPT,false,phishing,3,3,3837,0
711,AXPZAP62ZYWP8,795496953,534,postTraining,2,Human-GPT,true,phishing,3,5,8056,1
712,AXPZAP62ZYWP8,795496953,323,postTraining,3,Human-GPT,true,phishing,3,4,26202,1
713,AXPZAP62ZYWP8,795496953,1239,postTraining,4,Human-GPT,false,ham,2,2,5368,1
714,AXPZAP62ZYWP8,795496953,995,postTraining,5,Human-GPT,false,ham,1,4,6341,1
715,AXPZAP62ZYWP8,795496953,1315,postTraining,6,Human-GPT,true,ham,3,2,5667,0
716,AXPZAP62ZYWP8,795496953,1303,postTraining,7,Human-GPT,false,ham,3,4,4555,1
717,AXPZAP62ZYWP8,795496953,239,postTraining,8,Human-GPT,false,phishing,3,4,9929,0
718,AXPZAP62ZYWP8,795496953,415,postTraining,9,Human-GPT,true,phishing,2,4,7101,1
719,AXPZAP62ZYWP8,795496953,1443,postTraining,10,Human-GPT,false,ham,3,5,5466,1
720,A3UQ5DF8VVD975,233136838,389,preTraining,1,GPT-GPT,false,phishing,4,3,137890,0
721,A3UQ5DF8VVD975,233136838,1233,preTraining,2,GPT-GPT,false,ham,4,2,63702,1
722,A3UQ5DF8VVD975,233136838,616,preTraining,3,GPT-GPT,true,phishing,4,5,58835,1
723,A3UQ5DF8VVD975,233136838,1293,preTraining,4,GPT-GPT,false,ham,4,3,39000,1
724,A3UQ5DF8VVD975,233136838,480,preTraining,5,GPT-GPT,true,phishing,4,5,35867,1
725,A3UQ5DF8VVD975,233136838,841,preTraining,6,GPT-GPT,true,ham,2,2,23778,0
726,A3UQ5DF8VVD975,233136838,933,preTraining,7,GPT-GPT,false,ham,4,1,70035,1
727,A3UQ5DF8VVD975,233136838,1145,preTraining,8,GPT-GPT,false,ham,4,2,32957,1
728,A2FP41BSPG0Y4A,964011204,746,preTraining,1,GPT-Plain,true,phishing,4,4,45349,1
729,A3UQ5DF8VVD975,233136838,468,preTraining,9,GPT-GPT,true,phishing,4,3,27914,1
730,A3UQ5DF8VVD975,233136838,508,preTraining,10,GPT-GPT,true,phishing,4,3,32585,1
731,A2FP41BSPG0Y4A,964011204,910,preTraining,2,GPT-Plain,false,ham,3,3,59798,1
732,A3UQ5DF8VVD975,233136838,1225,Training,1,GPT-GPT,false,ham,4,2,4528,1
733,A3UQ5DF8VVD975,233136838,9,Training,2,GPT-GPT,true,phishing,4,3,11570,1
734,A2FP41BSPG0Y4A,964011204,477,preTraining,3,GPT-Plain,true,phishing,4,4,55430,1
735,A3UQ5DF8VVD975,233136838,1077,Training,3,GPT-GPT,false,ham,4,0,4507,1
736,A2FP41BSPG0Y4A,964011204,130,preTraining,4,GPT-Plain,true,phishing,4,4,51813,1
737,A3UQ5DF8VVD975,233136838,508,Training,4,GPT-GPT,true,phishing,4,3,4249,1
738,A2FP41BSPG0Y4A,964011204,1038,preTraining,5,GPT-Plain,false,ham,4,3,25036,1
739,A3UQ5DF8VVD975,233136838,293,Training,5,GPT-GPT,true,phishing,4,3,3916,1
740,A3UQ5DF8VVD975,233136838,1441,Training,6,GPT-GPT,false,ham,4,0,2836,1
741,A2FP41BSPG0Y4A,964011204,1006,preTraining,6,GPT-Plain,true,ham,4,4,36588,0
742,A3UQ5DF8VVD975,233136838,977,Training,7,GPT-GPT,false,ham,4,3,3335,1
743,A3UQ5DF8VVD975,233136838,1221,Training,8,GPT-GPT,false,ham,4,1,2851,1
744,A2FP41BSPG0Y4A,964011204,489,preTraining,7,GPT-Plain,true,phishing,4,3,48885,1
745,A3UQ5DF8VVD975,233136838,853,Training,9,GPT-GPT,false,ham,4,4,3131,1
746,A3UQ5DF8VVD975,233136838,357,Training,10,GPT-GPT,true,phishing,2,3,2927,1
747,A2FP41BSPG0Y4A,964011204,1318,preTraining,8,GPT-Plain,false,ham,4,1,40541,1
748,A3UQ5DF8VVD975,233136838,1005,Training,11,GPT-GPT,false,ham,4,4,4241,1
749,A2FP41BSPG0Y4A,964011204,1026,preTraining,9,GPT-Plain,false,ham,4,4,78745,1
750,A3UQ5DF8VVD975,233136838,1001,Training,12,GPT-GPT,false,ham,4,1,3768,1
751,A3UQ5DF8VVD975,233136838,381,Training,13,GPT-GPT,true,phishing,4,3,2462,1
752,A2FP41BSPG0Y4A,964011204,362,preTraining,10,GPT-Plain,true,phishing,4,5,23452,1
753,A3UQ5DF8VVD975,233136838,524,Training,14,GPT-GPT,true,phishing,4,3,2642,1
754,A3UQ5DF8VVD975,233136838,289,Training,15,GPT-GPT,true,phishing,3,3,2769,1
755,A2FP41BSPG0Y4A,964011204,706,Training,1,GPT-Plain,true,phishing,4,5,18051,1
756,A3UQ5DF8VVD975,233136838,421,Training,16,GPT-GPT,false,phishing,4,3,2900,0
757,A3UQ5DF8VVD975,233136838,969,Training,17,GPT-GPT,false,ham,4,4,12287,1
758,A2FP41BSPG0Y4A,964011204,234,Training,2,GPT-Plain,true,phishing,4,5,8718,1
759,A3UQ5DF8VVD975,233136838,1037,Training,18,GPT-GPT,false,ham,3,4,2179,1
760,A2FP41BSPG0Y4A,964011204,682,Training,3,GPT-Plain,true,phishing,4,5,7363,1
761,A3UQ5DF8VVD975,233136838,101,Training,19,GPT-GPT,true,phishing,4,3,2401,1
762,A3UQ5DF8VVD975,233136838,929,Training,20,GPT-GPT,false,ham,3,4,2910,1
763,A3UQ5DF8VVD975,233136838,1161,Training,21,GPT-GPT,false,ham,2,4,2651,1
764,A2FP41BSPG0Y4A,964011204,1158,Training,4,GPT-Plain,false,ham,4,3,8213,1
765,A3UQ5DF8VVD975,233136838,1173,Training,22,GPT-GPT,false,ham,4,4,2346,1
766,A2FP41BSPG0Y4A,964011204,810,Training,5,GPT-Plain,false,ham,4,3,4997,1
767,A3UQ5DF8VVD975,233136838,1193,Training,23,GPT-GPT,false,ham,3,0,2525,1
768,A3UQ5DF8VVD975,233136838,77,Training,24,GPT-GPT,false,phishing,2,3,2127,0
769,A2FP41BSPG0Y4A,964011204,914,Training,6,GPT-Plain,false,ham,4,4,3215,1
770,A3UQ5DF8VVD975,233136838,536,Training,25,GPT-GPT,true,phishing,4,3,8050,1
771,A3UQ5DF8VVD975,233136838,257,Training,26,GPT-GPT,true,phishing,2,3,2793,1
772,A3UQ5DF8VVD975,233136838,600,Training,27,GPT-GPT,true,phishing,4,3,2930,1
773,A3UQ5DF8VVD975,233136838,741,Training,28,GPT-GPT,false,phishing,3,4,2181,0
774,A2FP41BSPG0Y4A,964011204,950,Training,7,GPT-Plain,true,ham,2,4,4087,0
775,A3UQ5DF8VVD975,233136838,885,Training,29,GPT-GPT,false,ham,3,4,13464,1
776,A2FP41BSPG0Y4A,964011204,710,Training,8,GPT-Plain,true,phishing,4,5,6655,1
777,A3UQ5DF8VVD975,233136838,377,Training,30,GPT-GPT,true,phishing,4,3,2114,1
778,A2FP41BSPG0Y4A,964011204,10,Training,9,GPT-Plain,true,phishing,4,5,3631,1
779,A3UQ5DF8VVD975,233136838,1245,Training,31,GPT-GPT,false,ham,2,4,3166,1
780,A3UQ5DF8VVD975,233136838,556,Training,32,GPT-GPT,true,phishing,2,3,2667,1
781,A3UQ5DF8VVD975,233136838,369,Training,33,GPT-GPT,true,phishing,4,3,2501,1
782,A3UQ5DF8VVD975,233136838,709,Training,34,GPT-GPT,true,phishing,4,2,2394,1
783,A2FP41BSPG0Y4A,964011204,918,Training,10,GPT-Plain,false,ham,3,4,5860,1
784,A3UQ5DF8VVD975,233136838,809,Training,35,GPT-GPT,true,ham,1,4,1813,0
785,A2FP41BSPG0Y4A,964011204,597,Training,11,GPT-Plain,true,phishing,4,5,5127,1
786,A3UQ5DF8VVD975,233136838,385,Training,36,GPT-GPT,true,phishing,4,3,3342,1
787,A3UQ5DF8VVD975,233136838,1385,Training,37,GPT-GPT,true,ham,2,2,1694,0
788,A3UQ5DF8VVD975,233136838,1317,Training,38,GPT-GPT,true,ham,1,2,2508,0
789,A3UQ5DF8VVD975,233136838,544,Training,39,GPT-GPT,true,phishing,4,3,2868,1
790,A2FP41BSPG0Y4A,964011204,206,Training,12,GPT-Plain,true,phishing,4,5,4664,1
791,A3UQ5DF8VVD975,233136838,773,Training,40,GPT-GPT,false,ham,3,3,3300,1
792,A3UQ5DF8VVD975,233136838,1237,postTraining,1,GPT-GPT,true,ham,1,2,3639,0
793,A3UQ5DF8VVD975,233136838,468,postTraining,2,GPT-GPT,true,phishing,4,3,24055,1
794,A3UQ5DF8VVD975,233136838,1317,postTraining,3,GPT-GPT,true,ham,1,2,19835,0
795,A2FP41BSPG0Y4A,964011204,1074,Training,13,GPT-Plain,false,ham,4,4,66041,1
796,A3UQ5DF8VVD975,233136838,1177,postTraining,4,GPT-GPT,true,ham,1,2,26536,0
797,A3UQ5DF8VVD975,233136838,1057,postTraining,5,GPT-GPT,false,ham,3,3,24210,1
798,A2FP41BSPG0Y4A,964011204,378,Training,14,GPT-Plain,true,phishing,4,5,7463,1
799,A3UQ5DF8VVD975,233136838,1117,postTraining,6,GPT-GPT,false,ham,2,4,19597,1
800,A3UQ5DF8VVD975,233136838,536,postTraining,7,GPT-GPT,true,phishing,4,5,29770,1
801,A3UQ5DF8VVD975,233136838,185,postTraining,8,GPT-GPT,true,phishing,4,5,22043,1
802,A3UQ5DF8VVD975,233136838,1233,postTraining,9,GPT-GPT,false,ham,3,4,16504,1
803,A3UQ5DF8VVD975,233136838,1273,postTraining,10,GPT-GPT,true,ham,1,2,15527,0
804,A2FP41BSPG0Y4A,964011204,545,Training,15,GPT-Plain,true,phishing,4,5,106193,1
805,A2FP41BSPG0Y4A,964011204,629,Training,16,GPT-Plain,true,phishing,4,5,4738,1
806,A2FP41BSPG0Y4A,964011204,517,Training,17,GPT-Plain,true,phishing,4,5,5021,1
807,A2FP41BSPG0Y4A,964011204,70,Training,18,GPT-Plain,true,phishing,4,5,7343,1
808,A2FP41BSPG0Y4A,964011204,1370,Training,19,GPT-Plain,false,ham,4,4,5423,1
809,A2FP41BSPG0Y4A,964011204,794,Training,20,GPT-Plain,false,ham,4,3,19702,1
810,A2FP41BSPG0Y4A,964011204,465,Training,21,GPT-Plain,true,phishing,4,5,5031,1
811,A2FP41BSPG0Y4A,964011204,1050,Training,22,GPT-Plain,false,ham,4,4,42229,1
812,A2FP41BSPG0Y4A,964011204,666,Training,23,GPT-Plain,false,phishing,4,3,4104,0
813,A2FP41BSPG0Y4A,964011204,934,Training,24,GPT-Plain,false,ham,4,3,13861,1
814,A2FP41BSPG0Y4A,964011204,154,Training,25,GPT-Plain,true,phishing,3,5,20890,1
815,A2FP41BSPG0Y4A,964011204,822,Training,26,GPT-Plain,true,ham,3,5,5196,0
816,A2FP41BSPG0Y4A,964011204,862,Training,27,GPT-Plain,false,ham,4,3,3473,1
817,A2FP41BSPG0Y4A,964011204,250,Training,28,GPT-Plain,false,phishing,4,4,4145,0
818,A2FP41BSPG0Y4A,964011204,838,Training,29,GPT-Plain,false,ham,4,4,4805,1
819,A2FP41BSPG0Y4A,964011204,1178,Training,30,GPT-Plain,false,ham,4,3,4533,1
820,A2FP41BSPG0Y4A,964011204,22,Training,31,GPT-Plain,true,phishing,4,4,3361,1
821,A2FP41BSPG0Y4A,964011204,214,Training,32,GPT-Plain,true,phishing,4,5,4496,1
822,A2FP41BSPG0Y4A,964011204,1354,Training,33,GPT-Plain,false,ham,4,1,22858,1
823,A2FP41BSPG0Y4A,964011204,1390,Training,34,GPT-Plain,false,ham,4,1,6386,1
824,A2F81U9EDP6YJL,556552336,1425,preTraining,1,GPT-GPT,true,ham,0,0,3398,0
825,A2FP41BSPG0Y4A,964011204,94,Training,35,GPT-Plain,true,phishing,4,5,2608,1
826,A2F81U9EDP6YJL,556552336,1101,preTraining,2,GPT-GPT,true,ham,1,0,18493,0
827,A3HA1M2U9VZHYE,114634015,773,preTraining,1,GPT-GPT,false,ham,2,-1,1803560,1
828,A2F81U9EDP6YJL,556552336,169,preTraining,3,GPT-GPT,true,phishing,1,1,6900,1
829,A2F81U9EDP6YJL,556552336,445,preTraining,4,GPT-GPT,true,phishing,1,3,6356,1
830,A2F81U9EDP6YJL,556552336,801,preTraining,5,GPT-GPT,true,ham,2,1,11597,0
831,A3HA1M2U9VZHYE,114634015,825,preTraining,2,GPT-GPT,true,ham,3,4,147346,0
832,A2F81U9EDP6YJL,556552336,1193,preTraining,6,GPT-GPT,true,ham,1,1,11334,0
833,A3HA1M2U9VZHYE,114634015,89,preTraining,3,GPT-GPT,true,phishing,2,4,14382,1
834,A2F81U9EDP6YJL,556552336,661,preTraining,7,GPT-GPT,true,phishing,1,1,9352,1
835,A2F81U9EDP6YJL,556552336,1001,preTraining,8,GPT-GPT,true,ham,1,1,6553,0
836,A3HA1M2U9VZHYE,114634015,953,preTraining,4,GPT-GPT,true,ham,3,4,8763,0
837,A2F81U9EDP6YJL,556552336,564,preTraining,9,GPT-GPT,true,phishing,2,2,7145,1
838,A2F81U9EDP6YJL,556552336,669,preTraining,10,GPT-GPT,true,phishing,0,1,8212,1
839,A2F81U9EDP6YJL,556552336,417,Training,1,GPT-GPT,true,phishing,1,0,6688,1
840,A2FP41BSPG0Y4A,964011204,593,Training,36,GPT-Plain,false,phishing,3,4,4796,0
841,A2F81U9EDP6YJL,556552336,961,Training,2,GPT-GPT,true,ham,2,0,6203,0
842,A3HA1M2U9VZHYE,114634015,516,preTraining,5,GPT-GPT,false,phishing,3,0,12987,0
843,A2F81U9EDP6YJL,556552336,197,Training,3,GPT-GPT,true,phishing,0,0,3115,1
844,A3HA1M2U9VZHYE,114634015,612,preTraining,6,GPT-GPT,true,phishing,2,5,55233,1
845,A2F81U9EDP6YJL,556552336,580,Training,4,GPT-GPT,true,phishing,0,0,8932,1
846,A2FP41BSPG0Y4A,964011204,1338,Training,37,GPT-Plain,false,ham,4,1,5999,1
847,A2F81U9EDP6YJL,556552336,1141,Training,5,GPT-GPT,true,ham,2,1,3350,0
848,A2F81U9EDP6YJL,556552336,937,Training,6,GPT-GPT,true,ham,1,1,2829,0
849,A3HA1M2U9VZHYE,114634015,1133,preTraining,7,GPT-GPT,false,ham,4,0,13113,1
850,A2F81U9EDP6YJL,556552336,101,Training,7,GPT-GPT,true,phishing,1,1,2999,1
851,A2F81U9EDP6YJL,556552336,161,Training,8,GPT-GPT,true,phishing,2,1,2037,1
852,A2F81U9EDP6YJL,556552336,1369,Training,9,GPT-GPT,true,ham,2,1,4740,0
853,A2F81U9EDP6YJL,556552336,620,Training,10,GPT-GPT,true,phishing,1,1,2633,1
854,A2F81U9EDP6YJL,556552336,293,Training,11,GPT-GPT,true,phishing,2,1,6443,1
855,A2F81U9EDP6YJL,556552336,801,Training,12,GPT-GPT,true,ham,1,1,1996,0
856,A2F81U9EDP6YJL,556552336,805,Training,13,GPT-GPT,true,ham,2,1,3012,0
857,A2F81U9EDP6YJL,556552336,777,Training,14,GPT-GPT,true,ham,2,2,3649,0
858,A2F81U9EDP6YJL,556552336,853,Training,15,GPT-GPT,true,ham,2,1,1818,0
859,A2F81U9EDP6YJL,556552336,1437,Training,16,GPT-GPT,true,ham,2,1,3928,0
860,A3HA1M2U9VZHYE,114634015,552,preTraining,8,GPT-GPT,true,phishing,2,4,31112,1
861,A2F81U9EDP6YJL,556552336,1005,Training,17,GPT-GPT,true,ham,1,1,3280,0
862,A3HA1M2U9VZHYE,114634015,536,preTraining,9,GPT-GPT,true,phishing,2,0,126174,1
863,A2F81U9EDP6YJL,556552336,1121,Training,18,GPT-GPT,true,ham,1,1,3310,0
864,A2FP41BSPG0Y4A,964011204,978,Training,38,GPT-Plain,false,ham,4,4,10743,1
865,A2F81U9EDP6YJL,556552336,632,Training,19,GPT-GPT,true,phishing,2,1,2597,1
866,A2F81U9EDP6YJL,556552336,1301,Training,20,GPT-GPT,true,ham,1,0,2349,0
867,A2FP41BSPG0Y4A,964011204,786,Training,39,GPT-Plain,true,ham,4,5,6810,0
868,A2F81U9EDP6YJL,556552336,705,Training,21,GPT-GPT,true,phishing,2,0,2064,1
869,A2F81U9EDP6YJL,556552336,528,Training,22,GPT-GPT,true,phishing,2,1,2087,1
870,A2F81U9EDP6YJL,556552336,1161,Training,23,GPT-GPT,true,ham,2,1,2284,0
871,A2FP41BSPG0Y4A,964011204,1446,Training,40,GPT-Plain,false,ham,4,4,8519,1
872,A2F81U9EDP6YJL,556552336,1025,Training,24,GPT-GPT,true,ham,2,2,3432,0
873,A2F81U9EDP6YJL,556552336,1213,Training,25,GPT-GPT,true,ham,1,1,2469,0
874,A2F81U9EDP6YJL,556552336,261,Training,26,GPT-GPT,true,phishing,1,1,2818,1
875,A2F81U9EDP6YJL,556552336,568,Training,27,GPT-GPT,true,phishing,0,4,4045,1
876,A2FP41BSPG0Y4A,964011204,469,postTraining,1,GPT-Plain,true,phishing,4,5,5811,1
877,A2F81U9EDP6YJL,556552336,169,Training,28,GPT-GPT,true,phishing,4,5,4191,1
878,A2F81U9EDP6YJL,556552336,1181,Training,29,GPT-GPT,true,ham,4,5,2095,0
879,A2FP41BSPG0Y4A,964011204,930,postTraining,2,GPT-Plain,false,ham,4,1,24908,1
880,A2FP41BSPG0Y4A,964011204,350,postTraining,3,GPT-Plain,true,phishing,4,5,16654,1
881,A2F81U9EDP6YJL,556552336,205,Training,30,GPT-GPT,true,phishing,1,1,2232,1
882,A2F81U9EDP6YJL,556552336,1105,Training,31,GPT-GPT,true,ham,2,1,3694,0
883,A2F81U9EDP6YJL,556552336,1073,Training,32,GPT-GPT,true,ham,3,1,2026,0
884,A2FP41BSPG0Y4A,964011204,910,postTraining,4,GPT-Plain,false,ham,4,4,8817,1
885,A2F81U9EDP6YJL,556552336,536,Training,33,GPT-GPT,true,phishing,4,5,3089,1
886,A2F81U9EDP6YJL,556552336,449,Training,34,GPT-GPT,true,phishing,4,5,3289,1
887,A2FP41BSPG0Y4A,964011204,138,postTraining,5,GPT-Plain,true,phishing,4,5,28157,1
888,A2F81U9EDP6YJL,556552336,701,Training,35,GPT-GPT,true,phishing,0,1,3581,1
889,A3HA1M2U9VZHYE,114634015,313,preTraining,10,GPT-GPT,false,phishing,3,0,10190,0
890,A2F81U9EDP6YJL,556552336,1077,Training,36,GPT-GPT,true,ham,1,1,4342,0
891,A2FP41BSPG0Y4A,964011204,918,postTraining,6,GPT-Plain,true,ham,3,1,20481,0
892,A2F81U9EDP6YJL,556552336,757,Training,37,GPT-GPT,true,ham,2,1,4148,0
893,A2F81U9EDP6YJL,556552336,297,Training,38,GPT-GPT,true,phishing,2,1,2180,1
894,A2FP41BSPG0Y4A,964011204,1258,postTraining,7,GPT-Plain,true,ham,4,5,30349,0
895,A3HA1M2U9VZHYE,114634015,425,Training,1,GPT-GPT,true,phishing,3,5,6900,1
896,A2F81U9EDP6YJL,556552336,357,Training,39,GPT-GPT,true,phishing,3,1,2211,1
897,A2F81U9EDP6YJL,556552336,5,Training,40,GPT-GPT,true,phishing,0,0,4378,1
898,A2FP41BSPG0Y4A,964011204,850,postTraining,8,GPT-Plain,true,ham,4,5,21164,0
899,A3HA1M2U9VZHYE,114634015,177,Training,2,GPT-GPT,true,phishing,3,4,8885,1
900,A2FP41BSPG0Y4A,964011204,549,postTraining,9,GPT-Plain,true,phishing,4,5,24398,1
901,A2F81U9EDP6YJL,556552336,496,postTraining,1,GPT-GPT,true,phishing,1,1,4592,1
902,A3HA1M2U9VZHYE,114634015,341,Training,3,GPT-GPT,false,phishing,3,0,4533,0
903,A2F81U9EDP6YJL,556552336,1325,postTraining,2,GPT-GPT,true,ham,1,1,4924,0
904,A2F81U9EDP6YJL,556552336,765,postTraining,3,GPT-GPT,true,ham,2,1,7108,0
905,A2F81U9EDP6YJL,556552336,1241,postTraining,4,GPT-GPT,true,ham,1,2,4318,0
906,A2F81U9EDP6YJL,556552336,957,postTraining,5,GPT-GPT,true,ham,0,2,4677,0
907,A2F81U9EDP6YJL,556552336,709,postTraining,6,GPT-GPT,true,phishing,1,1,5270,1
908,A2FP41BSPG0Y4A,964011204,1306,postTraining,10,GPT-Plain,false,ham,4,4,9313,1
909,A2F81U9EDP6YJL,556552336,1261,postTraining,7,GPT-GPT,true,ham,2,1,4803,0
910,A3HA1M2U9VZHYE,114634015,285,Training,4,GPT-GPT,true,phishing,2,4,3231,1
911,A2F81U9EDP6YJL,556552336,873,postTraining,8,GPT-GPT,true,ham,2,1,4227,0
912,A2F81U9EDP6YJL,556552336,173,postTraining,9,GPT-GPT,true,phishing,2,1,4906,1
913,A2F81U9EDP6YJL,556552336,9,postTraining,10,GPT-GPT,true,phishing,1,1,7248,1
914,A3HA1M2U9VZHYE,114634015,701,Training,5,GPT-GPT,true,phishing,2,4,2227,1
915,A3HA1M2U9VZHYE,114634015,945,Training,6,GPT-GPT,false,ham,3,0,2423,1
916,A3HA1M2U9VZHYE,114634015,1053,Training,7,GPT-GPT,false,ham,2,0,2418,1
917,A3HA1M2U9VZHYE,114634015,1241,Training,8,GPT-GPT,false,ham,2,0,2290,1
918,A3HA1M2U9VZHYE,114634015,221,Training,9,GPT-GPT,true,phishing,3,4,1223,1
919,A3HA1M2U9VZHYE,114634015,169,Training,10,GPT-GPT,true,phishing,3,4,29367,1
920,A3HA1M2U9VZHYE,114634015,273,Training,11,GPT-GPT,true,phishing,2,4,1041,1
921,A3HA1M2U9VZHYE,114634015,33,Training,12,GPT-GPT,false,phishing,3,0,2721,0
922,A3HA1M2U9VZHYE,114634015,528,Training,13,GPT-GPT,true,phishing,3,4,951,1
923,A3HA1M2U9VZHYE,114634015,225,Training,14,GPT-GPT,true,phishing,3,4,1088,1
924,A3HA1M2U9VZHYE,114634015,1457,Training,15,GPT-GPT,false,ham,3,0,831,1
925,A3HA1M2U9VZHYE,114634015,1221,Training,16,GPT-GPT,true,ham,3,4,1321,0
926,A3HA1M2U9VZHYE,114634015,217,Training,17,GPT-GPT,true,phishing,3,4,1060,1
927,A3HA1M2U9VZHYE,114634015,1261,Training,18,GPT-GPT,false,ham,4,0,6190,1
928,A3HA1M2U9VZHYE,114634015,801,Training,19,GPT-GPT,false,ham,3,0,1010,1
929,A3HA1M2U9VZHYE,114634015,1133,Training,20,GPT-GPT,false,ham,3,0,1941,1
930,A3HA1M2U9VZHYE,114634015,1013,Training,21,GPT-GPT,false,ham,2,0,3614,1
931,A3HA1M2U9VZHYE,114634015,845,Training,22,GPT-GPT,true,ham,3,4,820,0
932,A3HA1M2U9VZHYE,114634015,433,Training,23,GPT-GPT,true,phishing,3,4,1232,1
933,A3HA1M2U9VZHYE,114634015,1213,Training,24,GPT-GPT,false,ham,3,0,988,1
934,A3HA1M2U9VZHYE,114634015,661,Training,25,GPT-GPT,true,phishing,3,4,4281,1
935,A3HA1M2U9VZHYE,114634015,1313,Training,26,GPT-GPT,true,ham,2,4,816,0
936,A3HA1M2U9VZHYE,114634015,965,Training,27,GPT-GPT,false,ham,3,0,3625,1
937,A3HA1M2U9VZHYE,114634015,249,Training,28,GPT-GPT,true,phishing,3,4,989,1
938,A3HA1M2U9VZHYE,114634015,45,Training,29,GPT-GPT,true,phishing,3,4,1024,1
939,A3HA1M2U9VZHYE,114634015,409,Training,30,GPT-GPT,true,phishing,3,4,849,1
940,A3HA1M2U9VZHYE,114634015,1049,Training,31,GPT-GPT,false,ham,1,0,1603,1
941,A3HA1M2U9VZHYE,114634015,1105,Training,32,GPT-GPT,false,ham,3,0,1086,1
942,A3HA1M2U9VZHYE,114634015,1085,Training,33,GPT-GPT,false,ham,3,0,1195,1
943,A3HA1M2U9VZHYE,114634015,1113,Training,34,GPT-GPT,false,ham,3,0,1090,1
944,A3HA1M2U9VZHYE,114634015,600,Training,35,GPT-GPT,true,phishing,4,4,1065,1
945,A3HA1M2U9VZHYE,114634015,584,Training,36,GPT-GPT,true,phishing,3,4,2101,1
946,A3HA1M2U9VZHYE,114634015,1445,Training,37,GPT-GPT,false,ham,3,0,3488,1
947,A3HA1M2U9VZHYE,114634015,277,Training,38,GPT-GPT,true,phishing,3,4,926,1
948,A3HA1M2U9VZHYE,114634015,1177,Training,39,GPT-GPT,false,ham,3,0,1029,1
949,A3HA1M2U9VZHYE,114634015,873,Training,40,GPT-GPT,true,ham,3,2,2189,0
950,A3HA1M2U9VZHYE,114634015,21,postTraining,1,GPT-GPT,true,phishing,3,4,3679,1
951,A3HA1M2U9VZHYE,114634015,1293,postTraining,2,GPT-GPT,true,ham,3,4,7868,0
952,A3HA1M2U9VZHYE,114634015,821,postTraining,3,GPT-GPT,false,ham,3,0,6970,1
953,A3HA1M2U9VZHYE,114634015,1249,postTraining,4,GPT-GPT,false,ham,3,0,9334,1
954,A3HA1M2U9VZHYE,114634015,345,postTraining,5,GPT-GPT,true,phishing,4,4,5432,1
955,A3HA1M2U9VZHYE,114634015,277,postTraining,6,GPT-GPT,true,phishing,4,4,4758,1
956,A3HA1M2U9VZHYE,114634015,161,postTraining,7,GPT-GPT,true,phishing,4,4,4550,1
957,A3HA1M2U9VZHYE,114634015,765,postTraining,8,GPT-GPT,true,ham,4,4,5272,0
958,A3HA1M2U9VZHYE,114634015,1381,postTraining,9,GPT-GPT,false,ham,3,0,4230,1
959,A3HA1M2U9VZHYE,114634015,1221,postTraining,10,GPT-GPT,true,ham,3,4,5186,0
960,A1DT7XOW0ISK0K,768954660,1411,preTraining,1,Human-GPT,false,ham,4,4,31477,1
961,A1DT7XOW0ISK0K,768954660,859,preTraining,2,Human-GPT,false,ham,2,4,90842,1
962,A1DT7XOW0ISK0K,768954660,427,preTraining,3,Human-GPT,false,phishing,4,4,55726,0
963,A1DT7XOW0ISK0K,768954660,630,preTraining,4,Human-GPT,false,phishing,4,4,13119,0
964,A1DT7XOW0ISK0K,768954660,747,preTraining,5,Human-GPT,false,phishing,4,4,17010,0
965,A1DT7XOW0ISK0K,768954660,1135,preTraining,6,Human-GPT,false,ham,4,4,11282,1
966,A1DT7XOW0ISK0K,768954660,470,preTraining,7,Human-GPT,true,phishing,4,2,33965,1
967,A1DT7XOW0ISK0K,768954660,739,preTraining,8,Human-GPT,true,phishing,4,5,53719,1
968,A1DT7XOW0ISK0K,768954660,967,preTraining,9,Human-GPT,false,ham,4,4,15738,1
969,A5P12YJP805RG,93459631,939,preTraining,1,Human-GPT,false,ham,4,0,45388,1
970,A1DT7XOW0ISK0K,768954660,1219,preTraining,10,Human-GPT,true,ham,3,4,16484,0
971,A5P12YJP805RG,93459631,1255,preTraining,2,Human-GPT,false,ham,3,2,45843,1
972,A1DT7XOW0ISK0K,768954660,447,Training,1,Human-GPT,true,phishing,4,5,2697,1
973,A5P12YJP805RG,93459631,1123,preTraining,3,Human-GPT,false,ham,4,1,23181,1
974,A1DT7XOW0ISK0K,768954660,963,Training,2,Human-GPT,false,ham,4,4,11068,1
975,A1DT7XOW0ISK0K,768954660,542,Training,3,Human-GPT,false,phishing,3,4,2624,0
976,A5P12YJP805RG,93459631,851,preTraining,4,Human-GPT,false,ham,4,1,29215,1
977,A5P12YJP805RG,93459631,375,preTraining,5,Human-GPT,true,phishing,3,5,29484,1
978,A5P12YJP805RG,93459631,119,preTraining,6,Human-GPT,true,phishing,4,5,26406,1
979,A5P12YJP805RG,93459631,795,preTraining,7,Human-GPT,false,ham,3,1,32025,1
980,A5P12YJP805RG,93459631,1371,preTraining,8,Human-GPT,true,ham,4,4,20572,0
981,A1DT7XOW0ISK0K,768954660,435,Training,4,Human-GPT,true,phishing,4,4,4371,1
982,A5P12YJP805RG,93459631,99,preTraining,9,Human-GPT,false,phishing,4,1,21090,0
983,A1DT7XOW0ISK0K,768954660,283,Training,5,Human-GPT,true,phishing,4,4,6020,1
984,A1DT7XOW0ISK0K,768954660,1455,Training,6,Human-GPT,false,ham,4,4,3620,1
985,A1DT7XOW0ISK0K,768954660,51,Training,7,Human-GPT,true,phishing,4,4,2171,1
986,A1DT7XOW0ISK0K,768954660,851,Training,8,Human-GPT,true,ham,4,4,1034,0
987,A5P12YJP805RG,93459631,235,preTraining,10,Human-GPT,true,phishing,3,3,21065,1
988,A5P12YJP805RG,93459631,1335,Training,1,Human-GPT,false,ham,4,3,3199,1
989,A1DT7XOW0ISK0K,768954660,1279,Training,9,Human-GPT,false,ham,4,4,11817,1
990,A5P12YJP805RG,93459631,1411,Training,2,Human-GPT,false,ham,4,1,4175,1
991,A1DT7XOW0ISK0K,768954660,407,Training,10,Human-GPT,true,phishing,4,4,924,1
992,A5P12YJP805RG,93459631,27,Training,3,Human-GPT,true,phishing,4,5,2926,1
993,A1DT7XOW0ISK0K,768954660,335,Training,11,Human-GPT,true,phishing,4,5,1914,1
994,A5P12YJP805RG,93459631,415,Training,4,Human-GPT,true,phishing,4,5,14926,1
995,A5P12YJP805RG,93459631,1407,Training,5,Human-GPT,false,ham,3,0,3699,1
996,A1DT7XOW0ISK0K,768954660,1123,Training,12,Human-GPT,false,ham,4,4,2138,1
997,A1DT7XOW0ISK0K,768954660,831,Training,13,Human-GPT,false,ham,4,4,1340,1
998,A5P12YJP805RG,93459631,131,Training,6,Human-GPT,true,phishing,4,5,2816,1
999,A1DT7XOW0ISK0K,768954660,895,Training,14,Human-GPT,false,ham,4,4,6551,1
1000,A1DT7XOW0ISK0K,768954660,1143,Training,15,Human-GPT,false,ham,2,4,1117,1
1001,A5P12YJP805RG,93459631,538,Training,7,Human-GPT,true,phishing,4,5,1852,1
1002,A1DT7XOW0ISK0K,768954660,522,Training,16,Human-GPT,true,phishing,4,4,1197,1
1003,A1DT7XOW0ISK0K,768954660,991,Training,17,Human-GPT,false,ham,4,4,901,1
1004,A5P12YJP805RG,93459631,839,Training,8,Human-GPT,false,ham,4,0,2081,1
1005,A1DT7XOW0ISK0K,768954660,1043,Training,18,Human-GPT,false,ham,4,1,751,1
1006,A1DT7XOW0ISK0K,768954660,19,Training,19,Human-GPT,true,phishing,4,5,1229,1
1007,A5P12YJP805RG,93459631,1219,Training,9,Human-GPT,false,ham,4,4,2394,1
1008,A5P12YJP805RG,93459631,1095,Training,10,Human-GPT,false,ham,3,1,2424,1
1009,A1DT7XOW0ISK0K,768954660,327,Training,20,Human-GPT,false,phishing,3,4,501,0
1010,A5P12YJP805RG,93459631,303,Training,11,Human-GPT,true,phishing,4,5,2528,1
1011,A5P12YJP805RG,93459631,1235,Training,12,Human-GPT,false,ham,4,4,1569,1
1012,A1DT7XOW0ISK0K,768954660,799,Training,21,Human-GPT,false,ham,4,4,33301,1
1013,A1DT7XOW0ISK0K,768954660,1395,Training,22,Human-GPT,false,ham,4,1,945,1
1014,A5P12YJP805RG,93459631,835,Training,13,Human-GPT,false,ham,4,0,961,1
1015,A5P12YJP805RG,93459631,23,Training,14,Human-GPT,true,phishing,4,5,3522,1
1016,A1DT7XOW0ISK0K,768954660,1299,Training,23,Human-GPT,false,ham,4,4,2329,1
1017,A5P12YJP805RG,93459631,1151,Training,15,Human-GPT,false,ham,4,0,1602,1
1018,A1DT7XOW0ISK0K,768954660,1071,Training,24,Human-GPT,false,ham,3,4,851,1
1019,A5P12YJP805RG,93459631,1315,Training,16,Human-GPT,false,ham,4,1,1707,1
1020,A5P12YJP805RG,93459631,815,Training,17,Human-GPT,false,ham,4,4,1716,1
1021,A1DT7XOW0ISK0K,768954660,1403,Training,25,Human-GPT,false,ham,4,4,953,1
1022,A1DT7XOW0ISK0K,768954660,695,Training,26,Human-GPT,false,phishing,4,4,971,0
1023,A5P12YJP805RG,93459631,859,Training,18,Human-GPT,false,ham,4,0,2672,1
1024,A1DT7XOW0ISK0K,768954660,75,Training,27,Human-GPT,true,phishing,4,5,27450,1
1025,A5P12YJP805RG,93459631,454,Training,19,Human-GPT,true,phishing,4,5,1810,1
1026,A1DT7XOW0ISK0K,768954660,263,Training,28,Human-GPT,true,phishing,4,5,1025,1
1027,A5P12YJP805RG,93459631,1363,Training,20,Human-GPT,false,ham,4,0,2111,1
1028,A5P12YJP805RG,93459631,1439,Training,21,Human-GPT,false,ham,4,0,2519,1
1029,A5P12YJP805RG,93459631,1207,Training,22,Human-GPT,false,ham,4,4,1399,1
1030,A1DT7XOW0ISK0K,768954660,1203,Training,29,Human-GPT,false,ham,3,4,748,1
1031,A5P12YJP805RG,93459631,1419,Training,23,Human-GPT,false,ham,4,0,2204,1
1032,A1DT7XOW0ISK0K,768954660,367,Training,30,Human-GPT,true,phishing,4,4,967,1
1033,A1DT7XOW0ISK0K,768954660,955,Training,31,Human-GPT,true,ham,4,5,1408,0
1034,A1DT7XOW0ISK0K,768954660,391,Training,32,Human-GPT,true,phishing,4,5,873,1
1035,A5P12YJP805RG,93459631,227,Training,24,Human-GPT,true,phishing,4,5,1810,1
1036,A1DT7XOW0ISK0K,768954660,15,Training,33,Human-GPT,false,phishing,4,4,603,0
1037,A5P12YJP805RG,93459631,466,Training,25,Human-GPT,true,phishing,4,5,1592,1
1038,A5P12YJP805RG,93459631,387,Training,26,Human-GPT,true,phishing,4,5,2159,1
1039,A5P12YJP805RG,93459631,458,Training,27,Human-GPT,true,phishing,4,5,1695,1
1040,A5P12YJP805RG,93459631,1339,Training,28,Human-GPT,false,ham,4,4,3038,1
1041,A5P12YJP805RG,93459631,79,Training,29,Human-GPT,true,phishing,4,5,2161,1
1042,A1DT7XOW0ISK0K,768954660,123,Training,34,Human-GPT,true,phishing,4,5,57269,1
1043,A1DT7XOW0ISK0K,768954660,763,Training,35,Human-GPT,true,ham,4,4,2803,0
1044,A1DT7XOW0ISK0K,768954660,1303,Training,36,Human-GPT,true,ham,4,5,1203,0
1045,A1DT7XOW0ISK0K,768954660,211,Training,37,Human-GPT,true,phishing,4,5,6312,1
1046,A1DT7XOW0ISK0K,768954660,1443,Training,38,Human-GPT,false,ham,4,4,1302,1
1047,A5P12YJP805RG,93459631,731,Training,30,Human-GPT,false,phishing,4,0,2073,0
1048,A2VAL2BRKVSUB5,22317515,551,preTraining,1,Human-Plain,true,phishing,4,4,52745,1
1049,A1DT7XOW0ISK0K,768954660,39,Training,39,Human-GPT,true,phishing,4,5,798,1
1050,A5P12YJP805RG,93459631,63,Training,31,Human-GPT,true,phishing,4,5,8952,1
1051,A1DT7XOW0ISK0K,768954660,7,Training,40,Human-GPT,true,phishing,4,5,931,1
1052,A5P12YJP805RG,93459631,1359,Training,32,Human-GPT,false,ham,3,0,1399,1
1053,A1DT7XOW0ISK0K,768954660,203,postTraining,1,Human-GPT,true,phishing,4,5,1430,1
1054,A2VAL2BRKVSUB5,22317515,615,preTraining,2,Human-Plain,true,phishing,4,3,41600,1
1055,A1DT7XOW0ISK0K,768954660,335,postTraining,2,Human-GPT,true,phishing,4,5,13496,1
1056,A5P12YJP805RG,93459631,626,Training,33,Human-GPT,false,phishing,4,0,1942,0
1057,A1DT7XOW0ISK0K,768954660,1379,postTraining,3,Human-GPT,false,ham,4,4,15524,1
1058,A1DT7XOW0ISK0K,768954660,590,postTraining,4,Human-GPT,true,phishing,4,5,11812,1
1059,A5P12YJP805RG,93459631,462,Training,34,Human-GPT,true,phishing,4,5,11133,1
1060,A1DT7XOW0ISK0K,768954660,987,postTraining,5,Human-GPT,false,ham,4,4,12692,1
1061,A5P12YJP805RG,93459631,271,Training,35,Human-GPT,true,phishing,4,5,1413,1
1062,A1DT7XOW0ISK0K,768954660,1063,postTraining,6,Human-GPT,false,ham,4,5,15040,1
1063,A2VAL2BRKVSUB5,22317515,692,preTraining,3,Human-Plain,true,phishing,3,1,49542,1
1064,A5P12YJP805RG,93459631,967,Training,36,Human-GPT,false,ham,4,0,1768,1
1065,A1DT7XOW0ISK0K,768954660,1395,postTraining,7,Human-GPT,false,ham,4,4,12445,1
1066,A5P12YJP805RG,93459631,251,Training,37,Human-GPT,true,phishing,4,5,1652,1
1067,A5P12YJP805RG,93459631,211,Training,38,Human-GPT,true,phishing,4,5,1651,1
1068,A2VAL2BRKVSUB5,22317515,828,preTraining,4,Human-Plain,false,ham,2,0,60838,1
1069,A5P12YJP805RG,93459631,1231,Training,39,Human-GPT,false,ham,4,0,1281,1
1070,A1DT7XOW0ISK0K,768954660,171,postTraining,8,Human-GPT,true,phishing,4,5,29561,1
1071,A2VAL2BRKVSUB5,22317515,228,preTraining,5,Human-Plain,true,phishing,4,4,62019,1
1072,A5P12YJP805RG,93459631,530,Training,40,Human-GPT,true,phishing,4,5,1900,1
1073,A2VAL2BRKVSUB5,22317515,264,preTraining,6,Human-Plain,true,phishing,3,3,17009,1
1074,A5P12YJP805RG,93459631,610,postTraining,1,Human-GPT,true,phishing,3,5,2622,1
1075,A2VAL2BRKVSUB5,22317515,1004,preTraining,7,Human-Plain,false,ham,3,0,16368,1
1076,A1DT7XOW0ISK0K,768954660,219,postTraining,9,Human-GPT,true,phishing,4,5,47703,1
1077,A5P12YJP805RG,93459631,839,postTraining,2,Human-GPT,false,ham,4,0,15580,1
1078,A2VAL2BRKVSUB5,22317515,579,preTraining,8,Human-Plain,false,phishing,3,0,23821,0
1079,A1DT7XOW0ISK0K,768954660,123,postTraining,10,Human-GPT,true,phishing,4,5,75923,1
1080,A5P12YJP805RG,93459631,1335,postTraining,3,Human-GPT,false,ham,4,4,47715,1
1081,A2VAL2BRKVSUB5,22317515,940,preTraining,9,Human-Plain,false,ham,3,1,40429,1
1082,A5P12YJP805RG,93459631,835,postTraining,4,Human-GPT,false,ham,4,0,31622,1
1083,A2VAL2BRKVSUB5,22317515,320,preTraining,10,Human-Plain,true,phishing,3,3,32543,1
1084,A5P12YJP805RG,93459631,727,postTraining,5,Human-GPT,false,phishing,3,1,22741,0
1085,A2VAL2BRKVSUB5,22317515,1444,Training,1,Human-Plain,false,ham,4,1,5876,1
1086,A5P12YJP805RG,93459631,303,postTraining,6,Human-GPT,true,phishing,4,5,49427,1
1087,A2VAL2BRKVSUB5,22317515,128,Training,2,Human-Plain,true,phishing,4,3,8690,1
1088,A5P12YJP805RG,93459631,127,postTraining,7,Human-GPT,true,phishing,4,5,17443,1
1089,A2VAL2BRKVSUB5,22317515,467,Training,3,Human-Plain,true,phishing,4,3,4851,1
1090,A5P12YJP805RG,93459631,387,postTraining,8,Human-GPT,true,phishing,4,5,29852,1
1091,A2VAL2BRKVSUB5,22317515,852,Training,4,Human-Plain,false,ham,4,1,6266,1
1092,A2VAL2BRKVSUB5,22317515,1420,Training,5,Human-Plain,false,ham,4,1,5069,1
1093,A5P12YJP805RG,93459631,1059,postTraining,9,Human-GPT,false,ham,4,1,34791,1
1094,A2VAL2BRKVSUB5,22317515,380,Training,6,Human-Plain,true,phishing,2,3,4335,1
1095,A5P12YJP805RG,93459631,1259,postTraining,10,Human-GPT,true,ham,3,2,28059,0
1096,A2VAL2BRKVSUB5,22317515,20,Training,7,Human-Plain,true,phishing,4,3,6823,1
1097,A2VAL2BRKVSUB5,22317515,944,Training,8,Human-Plain,false,ham,3,1,3950,1
1098,A2VAL2BRKVSUB5,22317515,212,Training,9,Human-Plain,true,phishing,4,3,4119,1
1099,A2VAL2BRKVSUB5,22317515,360,Training,10,Human-Plain,true,phishing,4,4,3086,1
1100,A2VAL2BRKVSUB5,22317515,1348,Training,11,Human-Plain,false,ham,4,1,2494,1
1101,A2VAL2BRKVSUB5,22317515,491,Training,12,Human-Plain,true,phishing,2,3,3563,1
1102,A2VAL2BRKVSUB5,22317515,1044,Training,13,Human-Plain,false,ham,4,1,5343,1
1103,A2VAL2BRKVSUB5,22317515,1136,Training,14,Human-Plain,true,ham,2,3,2402,0
1104,A2VAL2BRKVSUB5,22317515,1176,Training,15,Human-Plain,false,ham,3,1,8429,1
1105,A2VAL2BRKVSUB5,22317515,551,Training,16,Human-Plain,true,phishing,4,4,3368,1
1106,A2VAL2BRKVSUB5,22317515,1392,Training,17,Human-Plain,false,ham,4,1,2910,1
1107,A2VAL2BRKVSUB5,22317515,712,Training,18,Human-Plain,true,phishing,4,3,2914,1
1108,A2VAL2BRKVSUB5,22317515,1180,Training,19,Human-Plain,false,ham,3,1,2490,1
1109,A2VAL2BRKVSUB5,22317515,463,Training,20,Human-Plain,false,phishing,3,0,2115,0
1110,A2VAL2BRKVSUB5,22317515,444,Training,21,Human-Plain,true,phishing,2,3,12760,1
1111,A2VAL2BRKVSUB5,22317515,1388,Training,22,Human-Plain,false,ham,4,1,7570,1
1112,A2VAL2BRKVSUB5,22317515,364,Training,23,Human-Plain,true,phishing,4,3,2132,1
1113,A2VAL2BRKVSUB5,22317515,1056,Training,24,Human-Plain,false,ham,4,1,2662,1
1114,A2VAL2BRKVSUB5,22317515,172,Training,25,Human-Plain,true,phishing,3,3,2387,1
1115,A2VAL2BRKVSUB5,22317515,1068,Training,26,Human-Plain,false,ham,4,1,3665,1
1116,A2VAL2BRKVSUB5,22317515,756,Training,27,Human-Plain,false,ham,2,1,2157,1
1117,A2VAL2BRKVSUB5,22317515,872,Training,28,Human-Plain,false,ham,4,1,6532,1
1118,A2VAL2BRKVSUB5,22317515,732,Training,29,Human-Plain,true,phishing,2,3,2274,1
1119,A2VAL2BRKVSUB5,22317515,840,Training,30,Human-Plain,true,ham,2,3,4077,0
1120,A2VAL2BRKVSUB5,22317515,224,Training,31,Human-Plain,true,phishing,4,3,3901,1
1121,A2VAL2BRKVSUB5,22317515,1160,Training,32,Human-Plain,false,ham,4,1,2531,1
1122,A2VAL2BRKVSUB5,22317515,4,Training,33,Human-Plain,true,phishing,4,3,2218,1
1123,A2VAL2BRKVSUB5,22317515,192,Training,34,Human-Plain,true,phishing,4,3,3599,1
1124,A2VAL2BRKVSUB5,22317515,296,Training,35,Human-Plain,true,phishing,4,3,2431,1
1125,A2VAL2BRKVSUB5,22317515,1424,Training,36,Human-Plain,false,ham,4,1,3189,1
1126,A2VAL2BRKVSUB5,22317515,1332,Training,37,Human-Plain,false,ham,3,1,2175,1
1127,A2VAL2BRKVSUB5,22317515,676,Training,38,Human-Plain,true,phishing,4,3,2118,1
1128,A2VAL2BRKVSUB5,22317515,1092,Training,39,Human-Plain,false,ham,4,1,2574,1
1129,A2VAL2BRKVSUB5,22317515,440,Training,40,Human-Plain,true,phishing,2,3,1986,1
1130,A2VAL2BRKVSUB5,22317515,932,postTraining,1,Human-Plain,true,ham,1,3,17496,0
1131,A2VAL2BRKVSUB5,22317515,1344,postTraining,2,Human-Plain,false,ham,3,1,65854,1
1132,A2VAL2BRKVSUB5,22317515,92,postTraining,3,Human-Plain,true,phishing,4,3,14235,1
1133,A2VAL2BRKVSUB5,22317515,676,postTraining,4,Human-Plain,true,phishing,4,3,7312,1
1134,A2VAL2BRKVSUB5,22317515,872,postTraining,5,Human-Plain,false,ham,4,1,7950,1
1135,A2VAL2BRKVSUB5,22317515,300,postTraining,6,Human-Plain,true,phishing,4,3,15709,1
1136,A2VAL2BRKVSUB5,22317515,956,postTraining,7,Human-Plain,false,ham,2,1,6884,1
1137,A2VAL2BRKVSUB5,22317515,884,postTraining,8,Human-Plain,false,ham,2,1,31111,1
1138,A2VAL2BRKVSUB5,22317515,428,postTraining,9,Human-Plain,true,phishing,2,3,54890,1
1139,A2VAL2BRKVSUB5,22317515,1372,postTraining,10,Human-Plain,false,ham,2,1,22653,1
1140,A3GVO65IO5XTL4,573732376,1022,preTraining,1,GPT-Plain,true,ham,3,1,29188,0
1141,A3GVO65IO5XTL4,573732376,66,preTraining,2,GPT-Plain,true,phishing,3,1,36501,1
1142,A3GVO65IO5XTL4,573732376,1110,preTraining,3,GPT-Plain,false,ham,3,0,14994,1
1143,A3GVO65IO5XTL4,573732376,2,preTraining,4,GPT-Plain,true,phishing,3,1,16148,1
1144,A3GVO65IO5XTL4,573732376,557,preTraining,5,GPT-Plain,true,phishing,3,1,15520,1
1145,A3GVO65IO5XTL4,573732376,174,preTraining,6,GPT-Plain,true,phishing,3,1,14126,1
1146,A3GVO65IO5XTL4,573732376,1142,preTraining,7,GPT-Plain,false,ham,3,0,12025,1
1147,A3GVO65IO5XTL4,573732376,1222,preTraining,8,GPT-Plain,false,ham,3,1,11598,1
1148,A3GVO65IO5XTL4,573732376,513,preTraining,9,GPT-Plain,true,phishing,3,1,12343,1
1149,A3GVO65IO5XTL4,573732376,1086,preTraining,10,GPT-Plain,false,ham,3,1,9193,1
1150,A3GVO65IO5XTL4,573732376,477,Training,1,GPT-Plain,true,phishing,3,1,6578,1
1151,A3GVO65IO5XTL4,573732376,1450,Training,2,GPT-Plain,false,ham,3,0,18053,1
1152,A3GVO65IO5XTL4,573732376,1418,Training,3,GPT-Plain,false,ham,3,0,13287,1
1153,A3GVO65IO5XTL4,573732376,1066,Training,4,GPT-Plain,false,ham,3,0,5932,1
1154,A3GVO65IO5XTL4,573732376,94,Training,5,GPT-Plain,true,phishing,3,1,5432,1
1155,A3GVO65IO5XTL4,573732376,66,Training,6,GPT-Plain,false,phishing,3,1,4918,0
1156,A3GVO65IO5XTL4,573732376,1174,Training,7,GPT-Plain,false,ham,3,0,2943,1
1157,A3GVO65IO5XTL4,573732376,210,Training,8,GPT-Plain,true,phishing,3,1,2932,1
1158,A3GVO65IO5XTL4,573732376,525,Training,9,GPT-Plain,false,phishing,3,1,3761,0
1159,A3GVO65IO5XTL4,573732376,14,Training,10,GPT-Plain,true,phishing,3,1,4620,1
1160,A3GVO65IO5XTL4,573732376,902,Training,11,GPT-Plain,false,ham,3,0,4224,1
1161,A3GVO65IO5XTL4,573732376,382,Training,12,GPT-Plain,false,phishing,3,1,4829,0
1162,A3GVO65IO5XTL4,573732376,1126,Training,13,GPT-Plain,false,ham,4,0,4308,1
1163,A3GVO65IO5XTL4,573732376,609,Training,14,GPT-Plain,true,phishing,3,1,2660,1
1164,A3GVO65IO5XTL4,573732376,226,Training,15,GPT-Plain,true,phishing,3,1,5701,1
1165,A3GVO65IO5XTL4,573732376,666,Training,16,GPT-Plain,false,phishing,3,1,2800,0
1166,A3GVO65IO5XTL4,573732376,974,Training,17,GPT-Plain,false,ham,3,0,2689,1
1167,A3GVO65IO5XTL4,573732376,1414,Training,18,GPT-Plain,false,ham,3,1,3971,1
1168,A3GVO65IO5XTL4,573732376,453,Training,19,GPT-Plain,false,phishing,3,0,2806,0
1169,A3GVO65IO5XTL4,573732376,742,Training,20,GPT-Plain,false,phishing,3,0,2204,0
1170,A3GVO65IO5XTL4,573732376,457,Training,21,GPT-Plain,false,phishing,3,1,2288,0
1171,A3GVO65IO5XTL4,573732376,1254,Training,22,GPT-Plain,false,ham,3,1,2678,1
1172,A3GVO65IO5XTL4,573732376,298,Training,23,GPT-Plain,true,phishing,3,1,2996,1
1173,A3GVO65IO5XTL4,573732376,1178,Training,24,GPT-Plain,false,ham,3,0,3217,1
1174,A3GVO65IO5XTL4,573732376,758,Training,25,GPT-Plain,false,ham,3,0,6705,1
1175,A3GVO65IO5XTL4,573732376,1082,Training,26,GPT-Plain,false,ham,3,0,2163,1
1176,A3GVO65IO5XTL4,573732376,30,Training,27,GPT-Plain,true,phishing,3,1,2110,1
1177,A3GVO65IO5XTL4,573732376,910,Training,28,GPT-Plain,false,ham,3,0,2274,1
1178,A3GVO65IO5XTL4,573732376,1218,Training,29,GPT-Plain,false,ham,3,1,1924,1
1179,A3GVO65IO5XTL4,573732376,966,Training,30,GPT-Plain,false,ham,3,0,2225,1
1180,A3GVO65IO5XTL4,573732376,1222,Training,31,GPT-Plain,false,ham,3,1,2472,1
1181,A3GVO65IO5XTL4,573732376,1046,Training,32,GPT-Plain,false,ham,3,1,2322,1
1182,A3GVO65IO5XTL4,573732376,222,Training,33,GPT-Plain,true,phishing,4,1,2885,1
1183,A3GVO65IO5XTL4,573732376,446,Training,34,GPT-Plain,false,phishing,3,0,1885,0
1184,A3GVO65IO5XTL4,573732376,414,Training,35,GPT-Plain,false,phishing,3,1,2636,0
1185,A3GVO65IO5XTL4,573732376,1230,Training,36,GPT-Plain,false,ham,3,1,1809,1
1186,A3GVO65IO5XTL4,573732376,378,Training,37,GPT-Plain,false,phishing,3,1,1772,0
1187,A3GVO65IO5XTL4,573732376,922,Training,38,GPT-Plain,false,ham,3,1,1650,1
1188,A3GVO65IO5XTL4,573732376,1346,Training,39,GPT-Plain,false,ham,3,0,3290,1
1189,A3GVO65IO5XTL4,573732376,545,Training,40,GPT-Plain,true,phishing,3,1,3146,1
1190,A3GVO65IO5XTL4,573732376,1222,postTraining,1,GPT-Plain,false,ham,3,0,6576,1
1191,A3GVO65IO5XTL4,573732376,670,postTraining,2,GPT-Plain,false,phishing,3,0,11813,0
1192,A3GVO65IO5XTL4,573732376,382,postTraining,3,GPT-Plain,false,phishing,3,0,10831,0
1193,A3GVO65IO5XTL4,573732376,78,postTraining,4,GPT-Plain,true,phishing,3,1,9607,1
1194,A3GVO65IO5XTL4,573732376,74,postTraining,5,GPT-Plain,false,phishing,3,1,11470,0
1195,A3GVO65IO5XTL4,573732376,1398,postTraining,6,GPT-Plain,false,ham,3,1,6362,1
1196,A3GVO65IO5XTL4,573732376,1370,postTraining,7,GPT-Plain,false,ham,3,1,8196,1
1197,A3GVO65IO5XTL4,573732376,1382,postTraining,8,GPT-Plain,false,ham,3,-1,9793,1
1198,A3GVO65IO5XTL4,573732376,314,postTraining,9,GPT-Plain,false,phishing,3,0,12160,0
1199,A3GVO65IO5XTL4,573732376,254,postTraining,10,GPT-Plain,false,phishing,3,0,7175,0
1200,A25J8R3YQXAC61,944017585,1218,preTraining,1,GPT-Plain,false,ham,4,4,96487,1
1201,A25J8R3YQXAC61,944017585,290,preTraining,2,GPT-Plain,true,phishing,4,4,79117,1
1202,A25J8R3YQXAC61,944017585,658,preTraining,3,GPT-Plain,true,phishing,4,4,23589,1
1203,A25J8R3YQXAC61,944017585,505,preTraining,4,GPT-Plain,true,phishing,4,4,23993,1
1204,A25J8R3YQXAC61,944017585,970,preTraining,5,GPT-Plain,false,ham,4,4,17153,1
1205,A25J8R3YQXAC61,944017585,266,preTraining,6,GPT-Plain,true,phishing,4,4,15361,1
1206,A25J8R3YQXAC61,944017585,1106,preTraining,7,GPT-Plain,false,ham,4,4,21632,1
1207,A25J8R3YQXAC61,944017585,858,preTraining,8,GPT-Plain,false,ham,4,4,41503,1
1208,A25J8R3YQXAC61,944017585,1042,preTraining,9,GPT-Plain,false,ham,4,4,27349,1
1209,A25J8R3YQXAC61,944017585,434,preTraining,10,GPT-Plain,true,phishing,4,4,39105,1
1210,A25J8R3YQXAC61,944017585,66,Training,1,GPT-Plain,true,phishing,4,4,2545,1
1211,A25J8R3YQXAC61,944017585,1102,Training,2,GPT-Plain,true,ham,2,4,1892,0
1212,A25J8R3YQXAC61,944017585,802,Training,3,GPT-Plain,false,ham,4,4,2295,1
1213,A25J8R3YQXAC61,944017585,457,Training,4,GPT-Plain,true,phishing,4,4,1024,1
1214,A25J8R3YQXAC61,944017585,882,Training,5,GPT-Plain,false,ham,4,4,855,1
1215,A25J8R3YQXAC61,944017585,521,Training,6,GPT-Plain,true,phishing,4,4,1146,1
1216,A25J8R3YQXAC61,944017585,918,Training,7,GPT-Plain,true,ham,4,4,1156,0
1217,A25J8R3YQXAC61,944017585,1326,Training,8,GPT-Plain,false,ham,4,4,23115,1
1218,A25J8R3YQXAC61,944017585,686,Training,9,GPT-Plain,true,phishing,4,4,901,1
1219,A25J8R3YQXAC61,944017585,1042,Training,10,GPT-Plain,false,ham,4,4,1981,1
1220,A25J8R3YQXAC61,944017585,1058,Training,11,GPT-Plain,false,ham,4,4,1312,1
1221,A25J8R3YQXAC61,944017585,946,Training,12,GPT-Plain,false,ham,4,4,895,1
1222,A25J8R3YQXAC61,944017585,250,Training,13,GPT-Plain,true,phishing,4,4,861,1
1223,A25J8R3YQXAC61,944017585,1214,Training,14,GPT-Plain,false,ham,4,4,1224,1
1224,A25J8R3YQXAC61,944017585,1426,Training,15,GPT-Plain,false,ham,4,4,1695,1
1225,A25J8R3YQXAC61,944017585,242,Training,16,GPT-Plain,true,phishing,4,4,1183,1
1226,A25J8R3YQXAC61,944017585,1246,Training,17,GPT-Plain,false,ham,4,4,1082,1
1227,A25J8R3YQXAC61,944017585,158,Training,18,GPT-Plain,true,phishing,4,4,961,1
1228,A25J8R3YQXAC61,944017585,110,Training,19,GPT-Plain,true,phishing,4,4,1362,1
1229,A25J8R3YQXAC61,944017585,230,Training,20,GPT-Plain,true,phishing,4,4,1011,1
1230,A25J8R3YQXAC61,944017585,930,Training,21,GPT-Plain,false,ham,4,4,945,1
1231,A25J8R3YQXAC61,944017585,206,Training,22,GPT-Plain,true,phishing,4,4,1477,1
1232,A25J8R3YQXAC61,944017585,358,Training,23,GPT-Plain,false,phishing,4,4,1235,0
1233,A25J8R3YQXAC61,944017585,114,Training,24,GPT-Plain,true,phishing,4,4,1148,1
1234,A25J8R3YQXAC61,944017585,998,Training,25,GPT-Plain,false,ham,4,4,886,1
1235,A25J8R3YQXAC61,944017585,778,Training,26,GPT-Plain,false,ham,4,4,597,1
1236,A25J8R3YQXAC61,944017585,878,Training,27,GPT-Plain,false,ham,4,4,736,1
1237,A25J8R3YQXAC61,944017585,1294,Training,28,GPT-Plain,false,ham,4,3,1564,1
1238,A25J8R3YQXAC61,944017585,453,Training,29,GPT-Plain,true,phishing,4,4,637,1
1239,A25J8R3YQXAC61,944017585,338,Training,30,GPT-Plain,true,phishing,4,4,891,1
1240,A25J8R3YQXAC61,944017585,362,Training,31,GPT-Plain,true,phishing,4,4,2040,1
1241,A25J8R3YQXAC61,944017585,1450,Training,32,GPT-Plain,false,ham,4,4,719,1
1242,A25J8R3YQXAC61,944017585,609,Training,33,GPT-Plain,true,phishing,4,4,7016,1
1243,A25J8R3YQXAC61,944017585,982,Training,34,GPT-Plain,false,ham,4,4,760,1
1244,A25J8R3YQXAC61,944017585,1002,Training,35,GPT-Plain,false,ham,4,4,824,1
1245,A25J8R3YQXAC61,944017585,178,Training,36,GPT-Plain,true,phishing,4,4,905,1
1246,A25J8R3YQXAC61,944017585,322,Training,37,GPT-Plain,false,phishing,2,3,1000,0
1247,A25J8R3YQXAC61,944017585,866,Training,38,GPT-Plain,false,ham,4,4,992,1
1248,A25J8R3YQXAC61,944017585,473,Training,39,GPT-Plain,true,phishing,4,4,1023,1
1249,A25J8R3YQXAC61,944017585,577,Training,40,GPT-Plain,true,phishing,4,4,732,1
1250,A25J8R3YQXAC61,944017585,1366,postTraining,1,GPT-Plain,false,ham,4,4,1171,1
1251,A25J8R3YQXAC61,944017585,306,postTraining,2,GPT-Plain,true,phishing,4,4,16669,1
1252,A25J8R3YQXAC61,944017585,282,postTraining,3,GPT-Plain,true,phishing,4,4,24933,1
1253,A25J8R3YQXAC61,944017585,30,postTraining,4,GPT-Plain,true,phishing,4,4,7434,1
1254,A25J8R3YQXAC61,944017585,374,postTraining,5,GPT-Plain,true,phishing,4,4,7047,1
1255,A25J8R3YQXAC61,944017585,1178,postTraining,6,GPT-Plain,false,ham,4,4,13966,1
1256,A25J8R3YQXAC61,944017585,66,postTraining,7,GPT-Plain,true,phishing,4,4,13389,1
1257,A25J8R3YQXAC61,944017585,642,postTraining,8,GPT-Plain,true,phishing,4,4,6786,1
1258,A25J8R3YQXAC61,944017585,1146,postTraining,9,GPT-Plain,false,ham,4,4,15451,1
1259,A25J8R3YQXAC61,944017585,958,postTraining,10,GPT-Plain,false,ham,4,4,10748,1
1260,A1DZMZTXWOM9MR,705472585,1362,preTraining,1,GPT-Plain,false,ham,4,0,71286,1
1261,AR4FNR7Z2WLC8,393415608,553,preTraining,1,GPT-Plain,true,phishing,4,4,30967,1
1262,A1DZMZTXWOM9MR,705472585,410,preTraining,2,GPT-Plain,true,phishing,4,5,83581,1
1263,AR4FNR7Z2WLC8,393415608,674,preTraining,2,GPT-Plain,true,phishing,4,4,30874,1
1264,A1DZMZTXWOM9MR,705472585,310,preTraining,3,GPT-Plain,true,phishing,4,5,44247,1
1265,AR4FNR7Z2WLC8,393415608,902,preTraining,3,GPT-Plain,false,ham,3,3,18755,1
1266,AR4FNR7Z2WLC8,393415608,1382,preTraining,4,GPT-Plain,false,ham,3,3,56923,1
